trials1.thisRepN,trials1.thisTrialN,trials1.thisN,trials1.thisIndex,trials2.thisRepN,trials2.thisTrialN,trials2.thisN,trials2.thisIndex,trials3.thisRepN,trials3.thisTrialN,trials3.thisN,trials3.thisIndex,instr1.started,instr1.stopped,instr1Resp.keys,instr1Resp.rt,instr1Resp.started,instr1Resp.stopped,fix1.started,fix1.stopped,trial1Mouse.x,trial1Mouse.y,trial1Mouse.leftButton,trial1Mouse.midButton,trial1Mouse.rightButton,trial1Mouse.time,trial1Mouse.started,trial1Mouse.stopped,step,targetangle_deg,trial1Target.started,trial1Target.stopped,trial1Home.started,trial1Home.stopped,trial1Cursor.started,trial1Cursor.stopped,trial1Num.started,trial1Num.stopped,trial1Skip.keys,trial1Skip.rt,trial1Skip.started,trial1Skip.stopped,instr2.started,instr2.stopped,instr2Resp.keys,instr2Resp.rt,instr2Resp.started,instr2Resp.stopped,fix2.started,fix2.stopped,trial2Mouse.x,trial2Mouse.y,trial2Mouse.leftButton,trial2Mouse.midButton,trial2Mouse.rightButton,trial2Mouse.time,trial2Mouse.started,trial2Mouse.stopped,trial2Target.started,trial2Target.stopped,trial2Home.started,trial2Home.stopped,trial2Cursor.started,trial2Cursor.stopped,trial2Num.started,trial2Num.stopped,trial2Skip.keys,trial2Skip.rt,trial2Skip.started,trial2Skip.stopped,instr3.started,instr3.stopped,instr3Resp.keys,instr3Resp.rt,instr3Resp.started,instr3Resp.stopped,fix3.started,fix3.stopped,trial3Mouse.x,trial3Mouse.y,trial3Mouse.leftButton,trial3Mouse.midButton,trial3Mouse.rightButton,trial3Mouse.time,trial3Mouse.started,trial3Mouse.stopped,trial3Target.started,trial3Target.stopped,trial3Home.started,trial3Home.stopped,trial3Cursor.started,trial3Cursor.stopped,trial3Num.started,trial3Num.stopped,trial3Skip.keys,trial3Skip.rt,trial3Skip.started,trial3Skip.stopped,thanks.started,thanks.stopped,participant,session,date,expName,psychopyVersion,frameRate,
,,,,,,,,,,,,23.519921200117096,None,space,0.4681985001079738,23.519921200117096,None,,,,,,,,,,,,,,,,,,,,,,,,,,,,,,,,,,,,,,,,,,,,,,,,,,,,,,,,,,,,,,,,,,,,,,,,,,,,,,,,,,,a,001,2020_Jun_03_1437,mousePos3,2020.1.3,59.97979876167627,
0,0,0,0,,,,,,,,,,,,,,,24.009224799927324,None,"[-0.20052083333333334, -0.20052083333333334, -0.20052083333333334, -0.20052083333333334, -0.20052083333333334, -0.20052083333333334, -0.20052083333333334, -0.20052083333333334, -0.20052083333333334, -0.20052083333333334, -0.20052083333333334, -0.20052083333333334, -0.20052083333333334, -0.20052083333333334, -0.20052083333333334, -0.20052083333333334, -0.20052083333333334, -0.20052083333333334, -0.20052083333333334, -0.20052083333333334, -0.20052083333333334, -0.20052083333333334, -0.20052083333333334, -0.20052083333333334]","[0.13020833333333334, 0.13020833333333334, 0.13020833333333334, 0.13020833333333334, 0.13020833333333334, 0.13020833333333334, 0.13020833333333334, 0.13020833333333334, 0.13020833333333334, 0.13020833333333334, 0.13020833333333334, 0.13020833333333334, 0.13020833333333334, 0.13020833333333334, 0.13020833333333334, 0.13020833333333334, 0.13020833333333334, 0.13020833333333334, 0.13020833333333334, 0.13020833333333334, 0.13020833333333334, 0.13020833333333334, 0.13020833333333334, 0.13020833333333334]","[0, 0, 0, 0, 0, 0, 0, 0, 0, 0, 0, 0, 0, 0, 0, 0, 0, 0, 0, 0, 0, 0, 0, 0]","[0, 0, 0, 0, 0, 0, 0, 0, 0, 0, 0, 0, 0, 0, 0, 0, 0, 0, 0, 0, 0, 0, 0, 0]","[0, 0, 0, 0, 0, 0, 0, 0, 0, 0, 0, 0, 0, 0, 0, 0, 0, 0, 0, 0, 0, 0, 0, 0]","[0.0027846000157296658, 0.016203399980440736, 0.02961780014447868, 0.0466416000854224, 0.06319690006785095, 0.07993970019742846, 0.09647010010667145, 0.11328430008143187, 0.12955760001204908, 0.1465521000791341, 0.16321320016868412, 0.17991530010476708, 0.19657879997976124, 0.21318640001118183, 0.2298124001827091, 0.24650350003503263, 0.2631971000228077, 0.279890000121668, 0.2965414000209421, 0.3131864001043141, 0.3297715000808239, 0.34649819997139275, 0.3631519000045955, 0.379518800182268]",25.009746599942446,None,"[1, 1, 1, 1, 1, 1, 1, 1, 1, 1, 1, 1, 1, 1, 1, 1, 1, 1, 1, 1, 1, 1, 1, 1]",30,25.009746599942446,None,25.009746599942446,None,25.009746599942446,None,25.009746599942446,None,space,0.3543837999459356,25.009746599942446,None,,,,,,,,,,,,,,,,,,,,,,,,,,,,,,,,,,,,,,,,,,,,,,,,,,,,,,,,,,,a,001,2020_Jun_03_1437,mousePos3,2020.1.3,59.97979876167627,
1,0,1,0,,,,,,,,,,,,,,,,,"[-0.20052083333333334, -0.20052083333333334, -0.20052083333333334, -0.20052083333333334, -0.20052083333333334, -0.20052083333333334, -0.20052083333333334, -0.20052083333333334, -0.20052083333333334, -0.20052083333333334, -0.20052083333333334, -0.20052083333333334, -0.20052083333333334]","[0.13020833333333334, 0.13020833333333334, 0.13020833333333334, 0.13020833333333334, 0.13020833333333334, 0.13020833333333334, 0.13020833333333334, 0.13020833333333334, 0.13020833333333334, 0.13020833333333334, 0.13020833333333334, 0.13020833333333334, 0.13020833333333334]","[0, 0, 0, 0, 0, 0, 0, 0, 0, 0, 0, 0, 0]","[0, 0, 0, 0, 0, 0, 0, 0, 0, 0, 0, 0, 0]","[0, 0, 0, 0, 0, 0, 0, 0, 0, 0, 0, 0, 0]","[0.0061253998428583145, 0.016885200049728155, 0.038556399988010526, 0.055972599890083075, 0.07310869987122715, 0.08901959983631968, 0.10589569993317127, 0.12272009998559952, 0.13936809985898435, 0.15590789983980358, 0.17253959993831813, 0.1892365999519825, 0.20630840002559125]",25.40092510008253,None,"[1, 1, 1, 1, 1, 1, 1, 1, 1, 1, 1, 1, 1]",60,25.40092510008253,None,25.40092510008253,None,25.40092510008253,None,25.40092510008253,None,space,0.18711509997956455,25.40092510008253,None,,,,,,,,,,,,,,,,,,,,,,,,,,,,,,,,,,,,,,,,,,,,,,,,,,,,,,,,,,,a,001,2020_Jun_03_1437,mousePos3,2020.1.3,59.97979876167627,
2,0,2,0,,,,,,,,,,,,,,,,,"[-0.20052083333333334, -0.20052083333333334, -0.20052083333333334, -0.20052083333333334, -0.20052083333333334, -0.20052083333333334, -0.20052083333333334, -0.20052083333333334, -0.20052083333333334, -0.20052083333333334, -0.20052083333333334, -0.20052083333333334, -0.20052083333333334, -0.20052083333333334]","[0.13020833333333334, 0.13020833333333334, 0.13020833333333334, 0.13020833333333334, 0.13020833333333334, 0.13020833333333334, 0.13020833333333334, 0.13020833333333334, 0.13020833333333334, 0.13020833333333334, 0.13020833333333334, 0.13020833333333334, 0.13020833333333334, 0.13020833333333334]","[0, 0, 0, 0, 0, 0, 0, 0, 0, 0, 0, 0, 0, 0]","[0, 0, 0, 0, 0, 0, 0, 0, 0, 0, 0, 0, 0, 0]","[0, 0, 0, 0, 0, 0, 0, 0, 0, 0, 0, 0, 0, 0]","[0.006093400064855814, 0.01642680005170405, 0.04004159988835454, 0.0572221998590976, 0.07405499997548759, 0.09112320002168417, 0.10737599991261959, 0.12398490007035434, 0.14071250008419156, 0.1573409999255091, 0.17401549988426268, 0.19071169989183545, 0.2074108999222517, 0.22394589986652136]",25.616592299891636,None,"[1, 1, 1, 1, 1, 1, 1, 1, 1, 1, 1, 1, 1, 1]",30,25.616592299891636,None,25.616592299891636,None,25.616592299891636,None,25.616592299891636,None,space,0.19549339986406267,25.616592299891636,None,,,,,,,,,,,,,,,,,,,,,,,,,,,,,,,,,,,,,,,,,,,,,,,,,,,,,,,,,,,a,001,2020_Jun_03_1437,mousePos3,2020.1.3,59.97979876167627,
3,0,3,0,,,,,,,,,,,,,,,,,"[-0.20052083333333334, -0.20052083333333334, -0.20052083333333334, -0.20052083333333334, -0.20052083333333334, -0.20052083333333334, -0.20052083333333334, -0.20052083333333334, -0.20052083333333334, -0.20052083333333334, -0.20052083333333334, -0.20052083333333334, -0.20052083333333334, -0.20052083333333334, -0.20052083333333334]","[0.13020833333333334, 0.13020833333333334, 0.13020833333333334, 0.13020833333333334, 0.13020833333333334, 0.13020833333333334, 0.13020833333333334, 0.13020833333333334, 0.13020833333333334, 0.13020833333333334, 0.13020833333333334, 0.13020833333333334, 0.13020833333333334, 0.13020833333333334, 0.13020833333333334]","[0, 0, 0, 0, 0, 0, 0, 0, 0, 0, 0, 0, 0, 0, 0]","[0, 0, 0, 0, 0, 0, 0, 0, 0, 0, 0, 0, 0, 0, 0]","[0, 0, 0, 0, 0, 0, 0, 0, 0, 0, 0, 0, 0, 0, 0]","[0.0027075998950749636, 0.013823000015690923, 0.025270199868828058, 0.04133090004324913, 0.05805939994752407, 0.07445909990929067, 0.09137999988161027, 0.1085893998388201, 0.12469840003177524, 0.142508199904114, 0.15833069989457726, 0.17476939992047846, 0.19135340000502765, 0.20800049998797476, 0.2251483998261392]",25.84563839994371,None,"[1, 1, 1, 1, 1, 1, 1, 1, 1, 1, 1, 1, 1, 1, 1]",60,25.84563839994371,None,25.84563839994371,None,25.84563839994371,None,25.84563839994371,None,space,0.20646569994278252,25.84563839994371,None,,,,,,,,,,,,,,,,,,,,,,,,,,,,,,,,,,,,,,,,,,,,,,,,,,,,,,,,,,,a,001,2020_Jun_03_1437,mousePos3,2020.1.3,59.97979876167627,
4,0,4,0,,,,,,,,,,,,,,,,,"[-0.20052083333333334, -0.20052083333333334, -0.20052083333333334, -0.20052083333333334, -0.20052083333333334, -0.20052083333333334, -0.20052083333333334, -0.20052083333333334, -0.20052083333333334, -0.20052083333333334, -0.20052083333333334, -0.20052083333333334, -0.20052083333333334, -0.20052083333333334]","[0.13020833333333334, 0.13020833333333334, 0.13020833333333334, 0.13020833333333334, 0.13020833333333334, 0.13020833333333334, 0.13020833333333334, 0.13020833333333334, 0.13020833333333334, 0.13020833333333334, 0.13020833333333334, 0.13020833333333334, 0.13020833333333334, 0.13020833333333334]","[0, 0, 0, 0, 0, 0, 0, 0, 0, 0, 0, 0, 0, 0]","[0, 0, 0, 0, 0, 0, 0, 0, 0, 0, 0, 0, 0, 0]","[0, 0, 0, 0, 0, 0, 0, 0, 0, 0, 0, 0, 0, 0]","[0.0033946000039577484, 0.014588099904358387, 0.03951589995995164, 0.056770999915897846, 0.07335229986347258, 0.0899932999163866, 0.10667719994671643, 0.1234124000184238, 0.14005779987201095, 0.1567112000193447, 0.17340049985796213, 0.18984939996153116, 0.20659519988112152, 0.22380229993723333]",26.081009299959987,None,"[1, 1, 1, 1, 1, 1, 1, 1, 1, 1, 1, 1, 1, 1]",30,26.081009299959987,None,26.081009299959987,None,26.081009299959987,None,26.081009299959987,None,space,0.203098300145939,26.081009299959987,None,,,,,,,,,,,,,,,,,,,,,,,,,,,,,,,,,,,,,,,,,,,,,,,,,,,,,,,,,,,a,001,2020_Jun_03_1437,mousePos3,2020.1.3,59.97979876167627,
5,0,5,0,,,,,,,,,,,,,,,,,"[-0.20052083333333334, -0.20052083333333334, -0.20052083333333334, -0.20052083333333334, -0.20052083333333334, -0.20052083333333334, -0.20052083333333334, -0.20052083333333334, -0.20052083333333334, -0.20052083333333334, -0.20052083333333334, -0.20052083333333334, -0.20052083333333334]","[0.13020833333333334, 0.13020833333333334, 0.13020833333333334, 0.13020833333333334, 0.13020833333333334, 0.13020833333333334, 0.13020833333333334, 0.13020833333333334, 0.13020833333333334, 0.13020833333333334, 0.13020833333333334, 0.13020833333333334, 0.13020833333333334]","[0, 0, 0, 0, 0, 0, 0, 0, 0, 0, 0, 0, 0]","[0, 0, 0, 0, 0, 0, 0, 0, 0, 0, 0, 0, 0]","[0, 0, 0, 0, 0, 0, 0, 0, 0, 0, 0, 0, 0]","[0.005896700080484152, 0.016513400012627244, 0.03835180005989969, 0.05572500010021031, 0.07230919995345175, 0.08981689997017384, 0.10561210010200739, 0.1222838000394404, 0.13902150001376867, 0.15558129991404712, 0.17232930008322, 0.18897269992157817, 0.20606549992226064]",26.31737680011429,None,"[1, 1, 1, 1, 1, 1, 1, 1, 1, 1, 1, 1, 1]",60,26.31737680011429,None,26.31737680011429,None,26.31737680011429,None,26.31737680011429,None,space,0.1911030998453498,26.31737680011429,None,,,,,,,,,,,,,,,,,,,,,,,,,,,,,,,,,,,,,,,,,,,,,,,,,,,,,,,,,,,a,001,2020_Jun_03_1437,mousePos3,2020.1.3,59.97979876167627,
6,0,6,0,,,,,,,,,,,,,,,,,"[-0.20052083333333334, -0.20052083333333334, -0.20052083333333334, -0.20052083333333334, -0.20052083333333334, -0.20052083333333334, -0.20052083333333334, -0.20052083333333334, -0.20052083333333334, -0.20052083333333334, -0.20052083333333334, -0.20052083333333334, -0.20052083333333334, -0.20052083333333334, -0.20052083333333334, -0.20052083333333334]","[0.13020833333333334, 0.13020833333333334, 0.13020833333333334, 0.13020833333333334, 0.13020833333333334, 0.13020833333333334, 0.13020833333333334, 0.13020833333333334, 0.13020833333333334, 0.13020833333333334, 0.13020833333333334, 0.13020833333333334, 0.13020833333333334, 0.13020833333333334, 0.13020833333333334, 0.13020833333333334]","[0, 0, 0, 0, 0, 0, 0, 0, 0, 0, 0, 0, 0, 0, 0, 0]","[0, 0, 0, 0, 0, 0, 0, 0, 0, 0, 0, 0, 0, 0, 0, 0]","[0, 0, 0, 0, 0, 0, 0, 0, 0, 0, 0, 0, 0, 0, 0, 0]","[0.006249200087040663, 0.016725500114262104, 0.040288800140842795, 0.057675400050356984, 0.07435100013390183, 0.09092450002208352, 0.10764360008761287, 0.12437840015627444, 0.14092020015232265, 0.15763680008240044, 0.17435170011594892, 0.1909579001367092, 0.20769040007144213, 0.2242319001816213, 0.24098450015299022, 0.2582642000634223]",26.53238119999878,None,"[1, 1, 1, 1, 1, 1, 1, 1, 1, 1, 1, 1, 1, 1, 1, 1]",30,26.53238119999878,None,26.53238119999878,None,26.53238119999878,None,26.53238119999878,None,space,0.24007389997132123,26.53238119999878,None,,,,,,,,,,,,,,,,,,,,,,,,,,,,,,,,,,,,,,,,,,,,,,,,,,,,,,,,,,,a,001,2020_Jun_03_1437,mousePos3,2020.1.3,59.97979876167627,
7,0,7,0,,,,,,,,,,,,,,,,,"[-0.20052083333333334, -0.20052083333333334, -0.20052083333333334, -0.20052083333333334, -0.20052083333333334, -0.20052083333333334, -0.20052083333333334, -0.20052083333333334, -0.20052083333333334, -0.20052083333333334, -0.20052083333333334, -0.20052083333333334, -0.20052083333333334, -0.20052083333333334]","[0.13020833333333334, 0.13020833333333334, 0.13020833333333334, 0.13020833333333334, 0.13020833333333334, 0.13020833333333334, 0.13020833333333334, 0.13020833333333334, 0.13020833333333334, 0.13020833333333334, 0.13020833333333334, 0.13020833333333334, 0.13020833333333334, 0.13020833333333334]","[0, 0, 0, 0, 0, 0, 0, 0, 0, 0, 0, 0, 0, 0]","[0, 0, 0, 0, 0, 0, 0, 0, 0, 0, 0, 0, 0, 0]","[0, 0, 0, 0, 0, 0, 0, 0, 0, 0, 0, 0, 0, 0]","[0.006442499812692404, 0.017758799949660897, 0.037538299802690744, 0.054821599973365664, 0.07167169987224042, 0.0886983999516815, 0.10488389991223812, 0.1212877999059856, 0.13850250001996756, 0.15482129994779825, 0.1714664997998625, 0.1891759999562055, 0.20520589989610016, 0.22201129980385303]",26.802572699962184,None,"[1, 1, 1, 1, 1, 1, 1, 1, 1, 1, 1, 1, 1, 1]",60,26.802572699962184,None,26.802572699962184,None,26.802572699962184,None,26.802572699962184,None,space,0.20148950000293553,26.802572699962184,None,,,,,,,,,,,,,,,,,,,,,,,,,,,,,,,,,,,,,,,,,,,,,,,,,,,,,,,,,,,a,001,2020_Jun_03_1437,mousePos3,2020.1.3,59.97979876167627,
8,0,8,0,,,,,,,,,,,,,,,,,"[-0.20052083333333334, -0.20052083333333334, -0.20052083333333334, -0.20052083333333334, -0.20052083333333334, -0.20052083333333334, -0.20052083333333334, -0.20052083333333334, -0.20052083333333334, -0.20052083333333334, -0.20052083333333334, -0.20052083333333334, -0.20052083333333334]","[0.13020833333333334, 0.13020833333333334, 0.13020833333333334, 0.13020833333333334, 0.13020833333333334, 0.13020833333333334, 0.13020833333333334, 0.13020833333333334, 0.13020833333333334, 0.13020833333333334, 0.13020833333333334, 0.13020833333333334, 0.13020833333333334]","[0, 0, 0, 0, 0, 0, 0, 0, 0, 0, 0, 0, 0]","[0, 0, 0, 0, 0, 0, 0, 0, 0, 0, 0, 0, 0]","[0, 0, 0, 0, 0, 0, 0, 0, 0, 0, 0, 0, 0]","[0.003645499935373664, 0.014702799962833524, 0.03948899987153709, 0.05677489982917905, 0.07366059999912977, 0.090687699848786, 0.10694689978845417, 0.12362859980203211, 0.14022999978624284, 0.15695479977875948, 0.17360119987279177, 0.18995989998802543, 0.20687279989942908]",27.030960500007495,None,"[1, 1, 1, 1, 1, 1, 1, 1, 1, 1, 1, 1, 1]",30,27.030960500007495,None,27.030960500007495,None,27.030960500007495,None,27.030960500007495,None,space,0.18111669993959367,27.030960500007495,None,,,,,,,,,,,,,,,,,,,,,,,,,,,,,,,,,,,,,,,,,,,,,,,,,,,,,,,,,,,a,001,2020_Jun_03_1437,mousePos3,2020.1.3,59.97979876167627,
9,0,9,0,,,,,,,,,,,,,,,,,"[-0.20052083333333334, -0.20052083333333334, -0.20052083333333334, -0.20052083333333334, -0.20052083333333334, -0.20052083333333334, -0.20052083333333334, -0.20052083333333334, -0.20052083333333334, -0.20052083333333334, -0.20052083333333334, -0.20052083333333334, -0.20052083333333334, -0.20052083333333334, -0.20052083333333334]","[0.13020833333333334, 0.13020833333333334, 0.13020833333333334, 0.13020833333333334, 0.13020833333333334, 0.13020833333333334, 0.13020833333333334, 0.13020833333333334, 0.13020833333333334, 0.13020833333333334, 0.13020833333333334, 0.13020833333333334, 0.13020833333333334, 0.13020833333333334, 0.13020833333333334]","[0, 0, 0, 0, 0, 0, 0, 0, 0, 0, 0, 0, 0, 0, 0]","[0, 0, 0, 0, 0, 0, 0, 0, 0, 0, 0, 0, 0, 0, 0]","[0, 0, 0, 0, 0, 0, 0, 0, 0, 0, 0, 0, 0, 0, 0]","[0.0028850999660789967, 0.013265399960801005, 0.02489689993672073, 0.04153950000181794, 0.05812470009550452, 0.07484130002558231, 0.09141290001571178, 0.10842010006308556, 0.12473760009743273, 0.14143800013698637, 0.158217899966985, 0.17467620014213026, 0.1913187000900507, 0.20804960001260042, 0.2251548001077026]",27.245337600121275,None,"[1, 1, 1, 1, 1, 1, 1, 1, 1, 1, 1, 1, 1, 1, 1]",60,27.245337600121275,None,27.245337600121275,None,27.245337600121275,None,27.245337600121275,None,space,0.2067551000509411,27.245337600121275,None,,,,,,,,,,,,,,,,,,,,,,,,,,,,,,,,,,,,,,,,,,,,,,,,,,,,,,,,,,,a,001,2020_Jun_03_1437,mousePos3,2020.1.3,59.97979876167627,
10,0,10,0,,,,,,,,,,,,,,,,,"[-0.20052083333333334, -0.20052083333333334, -0.20052083333333334, -0.20052083333333334, -0.20052083333333334, -0.20052083333333334, -0.20052083333333334, -0.20052083333333334, -0.20052083333333334, -0.20052083333333334, -0.20052083333333334, -0.20052083333333334, -0.20052083333333334, -0.20052083333333334, -0.20052083333333334, -0.20052083333333334]","[0.13020833333333334, 0.13020833333333334, 0.13020833333333334, 0.13020833333333334, 0.13020833333333334, 0.13020833333333334, 0.13020833333333334, 0.13020833333333334, 0.13020833333333334, 0.13020833333333334, 0.13020833333333334, 0.13020833333333334, 0.13020833333333334, 0.13020833333333334, 0.13020833333333334, 0.13020833333333334]","[0, 0, 0, 0, 0, 0, 0, 0, 0, 0, 0, 0, 0, 0, 0, 0]","[0, 0, 0, 0, 0, 0, 0, 0, 0, 0, 0, 0, 0, 0, 0, 0]","[0, 0, 0, 0, 0, 0, 0, 0, 0, 0, 0, 0, 0, 0, 0, 0]","[0.003322599921375513, 0.014121399959549308, 0.024868600070476532, 0.040756599977612495, 0.05744220013730228, 0.07419420010410249, 0.09064609999768436, 0.10737819992937148, 0.12416750006377697, 0.14060809998773038, 0.15735510014928877, 0.1740093999542296, 0.19065350014716387, 0.20731359999626875, 0.22405169997364283, 0.2411239999346435]",27.480214199982584,None,"[1, 1, 1, 1, 1, 1, 1, 1, 1, 1, 1, 1, 1, 1, 1, 1]",30,27.480214199982584,None,27.480214199982584,None,27.480214199982584,None,27.480214199982584,None,space,0.21987529983744025,27.480214199982584,None,,,,,,,,,,,,,,,,,,,,,,,,,,,,,,,,,,,,,,,,,,,,,,,,,,,,,,,,,,,a,001,2020_Jun_03_1437,mousePos3,2020.1.3,59.97979876167627,
11,0,11,0,,,,,,,,,,,,,,,,,"[-0.20052083333333334, -0.20052083333333334, -0.20052083333333334, -0.20052083333333334, -0.20052083333333334, -0.20052083333333334, -0.20052083333333334, -0.20052083333333334, -0.20052083333333334, -0.20052083333333334, -0.20052083333333334, -0.20052083333333334, -0.20052083333333334, -0.20052083333333334]","[0.13020833333333334, 0.13020833333333334, 0.13020833333333334, 0.13020833333333334, 0.13020833333333334, 0.13020833333333334, 0.13020833333333334, 0.13020833333333334, 0.13020833333333334, 0.13020833333333334, 0.13020833333333334, 0.13020833333333334, 0.13020833333333334, 0.13020833333333334]","[0, 0, 0, 0, 0, 0, 0, 0, 0, 0, 0, 0, 0, 0]","[0, 0, 0, 0, 0, 0, 0, 0, 0, 0, 0, 0, 0, 0]","[0, 0, 0, 0, 0, 0, 0, 0, 0, 0, 0, 0, 0, 0]","[0.0030319001525640488, 0.013390999985858798, 0.024903099983930588, 0.040751100052148104, 0.05746900010854006, 0.07413269998505712, 0.09133239998482168, 0.10756830009631813, 0.12407700018957257, 0.14072670019231737, 0.1574570001102984, 0.17409470002166927, 0.19067510007880628, 0.2078839000314474]",27.729266199981794,None,"[1, 1, 1, 1, 1, 1, 1, 1, 1, 1, 1, 1, 1, 1]",60,27.729266199981794,None,27.729266199981794,None,27.729266199981794,None,27.729266199981794,None,space,0.19520910014398396,27.729266199981794,None,,,,,,,,,,,,,,,,,,,,,,,,,,,,,,,,,,,,,,,,,,,,,,,,,,,,,,,,,,,a,001,2020_Jun_03_1437,mousePos3,2020.1.3,59.97979876167627,
12,0,12,0,,,,,,,,,,,,,,,,,"[-0.20052083333333334, -0.20052083333333334, -0.20052083333333334, -0.20052083333333334, -0.20052083333333334, -0.20052083333333334, -0.20052083333333334, -0.20052083333333334, -0.20052083333333334, -0.20052083333333334, -0.20052083333333334, -0.20052083333333334, -0.20052083333333334, -0.20052083333333334]","[0.13020833333333334, 0.13020833333333334, 0.13020833333333334, 0.13020833333333334, 0.13020833333333334, 0.13020833333333334, 0.13020833333333334, 0.13020833333333334, 0.13020833333333334, 0.13020833333333334, 0.13020833333333334, 0.13020833333333334, 0.13020833333333334, 0.13020833333333334]","[0, 0, 0, 0, 0, 0, 0, 0, 0, 0, 0, 0, 0, 0]","[0, 0, 0, 0, 0, 0, 0, 0, 0, 0, 0, 0, 0, 0]","[0, 0, 0, 0, 0, 0, 0, 0, 0, 0, 0, 0, 0, 0]","[0.0033749998547136784, 0.01395779987797141, 0.039845299907028675, 0.057038099970668554, 0.07397529995068908, 0.0903286999091506, 0.10701909987255931, 0.12367150001227856, 0.14028179994784296, 0.15701299998909235, 0.17382619995623827, 0.1903029999230057, 0.20750599983148277, 0.22415739996358752]",27.94644089997746,None,"[1, 1, 1, 1, 1, 1, 1, 1, 1, 1, 1, 1, 1, 1]",30,27.94644089997746,None,27.94644089997746,None,27.94644089997746,None,27.94644089997746,None,space,0.21000339998863637,27.94644089997746,None,,,,,,,,,,,,,,,,,,,,,,,,,,,,,,,,,,,,,,,,,,,,,,,,,,,,,,,,,,,a,001,2020_Jun_03_1437,mousePos3,2020.1.3,59.97979876167627,
13,0,13,0,,,,,,,,,,,,,,,,,"[-0.20052083333333334, -0.20052083333333334, -0.20052083333333334, -0.20052083333333334, -0.20052083333333334, -0.20052083333333334, -0.20052083333333334, -0.20052083333333334, -0.20052083333333334, -0.20052083333333334, -0.20052083333333334, -0.20052083333333334, -0.20052083333333334, -0.20052083333333334]","[0.13020833333333334, 0.13020833333333334, 0.13020833333333334, 0.13020833333333334, 0.13020833333333334, 0.13020833333333334, 0.13020833333333334, 0.13020833333333334, 0.13020833333333334, 0.13020833333333334, 0.13020833333333334, 0.13020833333333334, 0.13020833333333334, 0.13020833333333334]","[0, 0, 0, 0, 0, 0, 0, 0, 0, 0, 0, 0, 0, 0]","[0, 0, 0, 0, 0, 0, 0, 0, 0, 0, 0, 0, 0, 0]","[0, 0, 0, 0, 0, 0, 0, 0, 0, 0, 0, 0, 0, 0]","[0.0035657999105751514, 0.014912100043147802, 0.03962830011732876, 0.05699760001152754, 0.07370480010285974, 0.0903016000520438, 0.10691690002568066, 0.1236612000502646, 0.14026160002686083, 0.15693760011345148, 0.1736131999641657, 0.19020710000768304, 0.20691989990882576, 0.22410900006070733]",28.180586900096387,None,"[1, 1, 1, 1, 1, 1, 1, 1, 1, 1, 1, 1, 1, 1]",60,28.180586900096387,None,28.180586900096387,None,28.180586900096387,None,28.180586900096387,None,space,0.2077999000903219,28.180586900096387,None,,,,,,,,,,,,,,,,,,,,,,,,,,,,,,,,,,,,,,,,,,,,,,,,,,,,,,,,,,,a,001,2020_Jun_03_1437,mousePos3,2020.1.3,59.97979876167627,
14,0,14,0,,,,,,,,,,,,,,,,,"[-0.20052083333333334, -0.20052083333333334, -0.20052083333333334, -0.20052083333333334, -0.20052083333333334, -0.20052083333333334, -0.20052083333333334, -0.20052083333333334, -0.20052083333333334, -0.20052083333333334, -0.20052083333333334, -0.20052083333333334, -0.20052083333333334, -0.20052083333333334, -0.20052083333333334]","[0.13020833333333334, 0.13020833333333334, 0.13020833333333334, 0.13020833333333334, 0.13020833333333334, 0.13020833333333334, 0.13020833333333334, 0.13020833333333334, 0.13020833333333334, 0.13020833333333334, 0.13020833333333334, 0.13020833333333334, 0.13020833333333334, 0.13020833333333334, 0.13020833333333334]","[0, 0, 0, 0, 0, 0, 0, 0, 0, 0, 0, 0, 0, 0, 0]","[0, 0, 0, 0, 0, 0, 0, 0, 0, 0, 0, 0, 0, 0, 0]","[0, 0, 0, 0, 0, 0, 0, 0, 0, 0, 0, 0, 0, 0, 0]","[0.0036985999904572964, 0.014950599987059832, 0.03980030003003776, 0.057173100067302585, 0.07384660001844168, 0.09053940000012517, 0.10717139998450875, 0.12410839996300638, 0.1404828999657184, 0.15734799997881055, 0.17382250004447997, 0.19048270001076162, 0.2071106000803411, 0.2238406001124531, 0.24047209997661412]",28.413628899957985,None,"[1, 1, 1, 1, 1, 1, 1, 1, 1, 1, 1, 1, 1, 1, 1]",30,28.413628899957985,None,28.413628899957985,None,28.413628899957985,None,28.413628899957985,None,space,0.23037600005045533,28.413628899957985,None,,,,,,,,,,,,,,,,,,,,,,,,,,,,,,,,,,,,,,,,,,,,,,,,,,,,,,,,,,,a,001,2020_Jun_03_1437,mousePos3,2020.1.3,59.97979876167627,
,,,,,,,,,,,,,,,,,,,,,,,,,,,,,,,,,,,,,,,,,,28.65884799999185,None,space,0.2252505999058485,28.65884799999185,None,,,,,,,,,,,,,,,,,,,,,,,,,,,,,,,,,,,,,,,,,,,,,,,,,,,,,a,001,2020_Jun_03_1437,mousePos3,2020.1.3,59.97979876167627,
,,,,0,0,0,0,,,,,,,,,,,,,,,,,,,,,"[1, 1, 1, 1, 1, 1, 1, 1, 1, 1, 1]",30,,,,,,,,,,,,,,,,,,,28.90797959989868,None,"[-0.20052083333333334, -0.20052083333333334, -0.20052083333333334, -0.20052083333333334, -0.20052083333333334, -0.20052083333333334, -0.20052083333333334, -0.20052083333333334, -0.20052083333333334, -0.20052083333333334, -0.20052083333333334]","[0.13020833333333334, 0.13020833333333334, 0.13020833333333334, 0.13020833333333334, 0.13020833333333334, 0.13020833333333334, 0.13020833333333334, 0.13020833333333334, 0.13020833333333334, 0.13020833333333334, 0.13020833333333334]","[0, 0, 0, 0, 0, 0, 0, 0, 0, 0, 0]","[0, 0, 0, 0, 0, 0, 0, 0, 0, 0, 0]","[0, 0, 0, 0, 0, 0, 0, 0, 0, 0, 0]","[0.0028761001303792, 0.01611720002256334, 0.031434600008651614, 0.04689130000770092, 0.06353739998303354, 0.08020600001327693, 0.09684360004030168, 0.11357460008002818, 0.13026520004495978, 0.14683660003356636, 0.1639931001700461]",29.90802039997652,None,29.90802039997652,None,29.90802039997652,None,29.90802039997652,None,29.90802039997652,None,space,0.14404519996605814,29.90802039997652,None,,,,,,,,,,,,,,,,,,,,,,,,,,,,,,,a,001,2020_Jun_03_1437,mousePos3,2020.1.3,59.97979876167627,
,,,,1,0,1,0,,,,,,,,,,,,,,,,,,,,,"[1, 1, 1, 1, 1, 1, 1, 1, 1, 1, 1, 1, 1]",60,,,,,,,,,,,,,,,,,,,,,"[-0.20052083333333334, -0.20052083333333334, -0.20052083333333334, -0.20052083333333334, -0.20052083333333334, -0.20052083333333334, -0.20052083333333334, -0.20052083333333334, -0.20052083333333334, -0.20052083333333334, -0.20052083333333334, -0.20052083333333334, -0.20052083333333334]","[0.13020833333333334, 0.13020833333333334, 0.13020833333333334, 0.13020833333333334, 0.13020833333333334, 0.13020833333333334, 0.13020833333333334, 0.13020833333333334, 0.13020833333333334, 0.13020833333333334, 0.13020833333333334, 0.13020833333333334, 0.13020833333333334]","[0, 0, 0, 0, 0, 0, 0, 0, 0, 0, 0, 0, 0]","[0, 0, 0, 0, 0, 0, 0, 0, 0, 0, 0, 0, 0]","[0, 0, 0, 0, 0, 0, 0, 0, 0, 0, 0, 0, 0]","[0.002862700028344989, 0.013869800139218569, 0.02806750009767711, 0.04475670005194843, 0.06137870019301772, 0.07853540009818971, 0.09462760016322136, 0.11139560001902282, 0.12805100018158555, 0.14478490012697875, 0.1618673000484705, 0.17801590007729828, 0.19468180020339787]",30.091345000080764,None,30.091345000080764,None,30.091345000080764,None,30.091345000080764,None,30.091345000080764,None,space,0.1847226000390947,30.091345000080764,None,,,,,,,,,,,,,,,,,,,,,,,,,,,,,,,a,001,2020_Jun_03_1437,mousePos3,2020.1.3,59.97979876167627,
,,,,2,0,2,0,,,,,,,,,,,,,,,,,,,,,"[1, 1, 1, 1, 1, 1, 1, 1, 1, 1, 1, 1, 1]",30,,,,,,,,,,,,,,,,,,,,,"[-0.20052083333333334, -0.20052083333333334, -0.20052083333333334, -0.20052083333333334, -0.20052083333333334, -0.20052083333333334, -0.20052083333333334, -0.20052083333333334, -0.20052083333333334, -0.20052083333333334, -0.20052083333333334, -0.20052083333333334, -0.20052083333333334]","[0.13020833333333334, 0.13020833333333334, 0.13020833333333334, 0.13020833333333334, 0.13020833333333334, 0.13020833333333334, 0.13020833333333334, 0.13020833333333334, 0.13020833333333334, 0.13020833333333334, 0.13020833333333334, 0.13020833333333334, 0.13020833333333334]","[0, 0, 0, 0, 0, 0, 0, 0, 0, 0, 0, 0, 0]","[0, 0, 0, 0, 0, 0, 0, 0, 0, 0, 0, 0, 0]","[0, 0, 0, 0, 0, 0, 0, 0, 0, 0, 0, 0, 0]","[0.0032277998980134726, 0.013742799870669842, 0.03247259999625385, 0.049622499849647284, 0.06640059989877045, 0.08303589979186654, 0.100193299818784, 0.1163581998553127, 0.13303559995256364, 0.1496313998941332, 0.1663694998715073, 0.1829958998132497, 0.20023650000803173]",30.30279290000908,None,30.30279290000908,None,30.30279290000908,None,30.30279290000908,None,30.30279290000908,None,space,0.18126769992522895,30.30279290000908,None,,,,,,,,,,,,,,,,,,,,,,,,,,,,,,,a,001,2020_Jun_03_1437,mousePos3,2020.1.3,59.97979876167627,
,,,,3,0,3,0,,,,,,,,,,,,,,,,,,,,,"[1, 1, 1, 1, 1, 1, 1, 1, 1, 1, 1, 1, 1, 1, 1]",60,,,,,,,,,,,,,,,,,,,,,"[-0.20052083333333334, -0.20052083333333334, -0.20052083333333334, -0.20052083333333334, -0.20052083333333334, -0.20052083333333334, -0.20052083333333334, -0.20052083333333334, -0.20052083333333334, -0.20052083333333334, -0.20052083333333334, -0.20052083333333334, -0.20052083333333334, -0.20052083333333334, -0.20052083333333334]","[0.13020833333333334, 0.13020833333333334, 0.13020833333333334, 0.13020833333333334, 0.13020833333333334, 0.13020833333333334, 0.13020833333333334, 0.13020833333333334, 0.13020833333333334, 0.13020833333333334, 0.13020833333333334, 0.13020833333333334, 0.13020833333333334, 0.13020833333333334, 0.13020833333333334]","[0, 0, 0, 0, 0, 0, 0, 0, 0, 0, 0, 0, 0, 0, 0]","[0, 0, 0, 0, 0, 0, 0, 0, 0, 0, 0, 0, 0, 0, 0]","[0, 0, 0, 0, 0, 0, 0, 0, 0, 0, 0, 0, 0, 0, 0]","[0.002891800133511424, 0.013452599989250302, 0.03135930001735687, 0.04894180013798177, 0.06548780016601086, 0.08184200013056397, 0.09873070009052753, 0.1153275000397116, 0.13238360011018813, 0.14865620015189052, 0.16528910002671182, 0.18198009999468923, 0.19868550007231534, 0.2153191000688821, 0.23232530010864139]",30.5199416000396,None,30.5199416000396,None,30.5199416000396,None,30.5199416000396,None,30.5199416000396,None,space,0.21224220003932714,30.5199416000396,None,,,,,,,,,,,,,,,,,,,,,,,,,,,,,,,a,001,2020_Jun_03_1437,mousePos3,2020.1.3,59.97979876167627,
,,,,4,0,4,0,,,,,,,,,,,,,,,,,,,,,"[1, 1, 1, 1, 1, 1, 1, 1, 1, 1, 1, 1, 1, 1, 1, 1]",30,,,,,,,,,,,,,,,,,,,,,"[-0.20052083333333334, -0.20052083333333334, -0.20052083333333334, -0.20052083333333334, -0.20052083333333334, -0.20052083333333334, -0.20052083333333334, -0.20052083333333334, -0.20052083333333334, -0.20052083333333334, -0.20052083333333334, -0.20052083333333334, -0.20052083333333334, -0.20052083333333334, -0.20052083333333334, -0.20052083333333334]","[0.13020833333333334, 0.13020833333333334, 0.13020833333333334, 0.13020833333333334, 0.13020833333333334, 0.13020833333333334, 0.13020833333333334, 0.13020833333333334, 0.13020833333333334, 0.13020833333333334, 0.13020833333333334, 0.13020833333333334, 0.13020833333333334, 0.13020833333333334, 0.13020833333333334, 0.13020833333333334]","[0, 0, 0, 0, 0, 0, 0, 0, 0, 0, 0, 0, 0, 0, 0, 0]","[0, 0, 0, 0, 0, 0, 0, 0, 0, 0, 0, 0, 0, 0, 0, 0]","[0, 0, 0, 0, 0, 0, 0, 0, 0, 0, 0, 0, 0, 0, 0, 0]","[0.002895799931138754, 0.01338019990362227, 0.03167639998719096, 0.04873749986290932, 0.06548829982057214, 0.08220770000480115, 0.09881250001490116, 0.11543919984251261, 0.13213879987597466, 0.15049799997359514, 0.16558429994620383, 0.18228970002382994, 0.1989106999244541, 0.2157892999239266, 0.23209699988365173, 0.24919769982807338]",30.77017130004242,None,30.77017130004242,None,30.77017130004242,None,30.77017130004242,None,30.77017130004242,None,space,0.2342091000173241,30.77017130004242,None,,,,,,,,,,,,,,,,,,,,,,,,,,,,,,,a,001,2020_Jun_03_1437,mousePos3,2020.1.3,59.97979876167627,
,,,,5,0,5,0,,,,,,,,,,,,,,,,,,,,,"[1, 1, 1, 1, 1, 1, 1, 1, 1, 1, 1, 1, 1, 1, 1]",60,,,,,,,,,,,,,,,,,,,,,"[-0.20052083333333334, -0.20052083333333334, -0.20052083333333334, -0.20052083333333334, -0.20052083333333334, -0.20052083333333334, -0.20052083333333334, -0.20052083333333334, -0.20052083333333334, -0.20052083333333334, -0.20052083333333334, -0.20052083333333334, -0.20052083333333334, -0.20052083333333334, -0.20052083333333334]","[0.13020833333333334, 0.13020833333333334, 0.13020833333333334, 0.13020833333333334, 0.13020833333333334, 0.13020833333333334, 0.13020833333333334, 0.13020833333333334, 0.13020833333333334, 0.13020833333333334, 0.13020833333333334, 0.13020833333333334, 0.13020833333333334, 0.13020833333333334, 0.13020833333333334]","[0, 0, 0, 0, 0, 0, 0, 0, 0, 0, 0, 0, 0, 0, 0]","[0, 0, 0, 0, 0, 0, 0, 0, 0, 0, 0, 0, 0, 0, 0]","[0, 0, 0, 0, 0, 0, 0, 0, 0, 0, 0, 0, 0, 0, 0]","[0.0027347002178430557, 0.013320200145244598, 0.03130930010229349, 0.04867560020647943, 0.06542610004544258, 0.08198050013743341, 0.09861400001682341, 0.11525990022346377, 0.1332727000117302, 0.1485987000633031, 0.1652705001179129, 0.18202320020645857, 0.19863570015877485, 0.21525060012936592, 0.23197650001384318]",31.037355999927968,None,31.037355999927968,None,31.037355999927968,None,31.037355999927968,None,31.037355999927968,None,space,0.20664660003967583,31.037355999927968,None,,,,,,,,,,,,,,,,,,,,,,,,,,,,,,,a,001,2020_Jun_03_1437,mousePos3,2020.1.3,59.97979876167627,
,,,,6,0,6,0,,,,,,,,,,,,,,,,,,,,,"[1, 1, 1, 1, 1, 1, 1, 1, 1, 1, 1]",30,,,,,,,,,,,,,,,,,,,,,"[-0.20052083333333334, -0.20052083333333334, -0.20052083333333334, -0.20052083333333334, -0.20052083333333334, -0.20052083333333334, -0.20052083333333334, -0.20052083333333334, -0.20052083333333334, -0.20052083333333334, -0.20052083333333334]","[0.13020833333333334, 0.13020833333333334, 0.13020833333333334, 0.13020833333333334, 0.13020833333333334, 0.13020833333333334, 0.13020833333333334, 0.13020833333333334, 0.13020833333333334, 0.13020833333333334, 0.13020833333333334]","[0, 0, 0, 0, 0, 0, 0, 0, 0, 0, 0]","[0, 0, 0, 0, 0, 0, 0, 0, 0, 0, 0]","[0, 0, 0, 0, 0, 0, 0, 0, 0, 0, 0]","[0.002772500040009618, 0.013278299942612648, 0.03215230000205338, 0.049377999966964126, 0.06657799985259771, 0.08264759997837245, 0.09952099993824959, 0.11605429998598993, 0.13259160006418824, 0.14933669986203313, 0.16718459990806878]",31.286366200074553,None,31.286366200074553,None,31.286366200074553,None,31.286366200074553,None,31.286366200074553,None,space,0.1497884001582861,31.286366200074553,None,,,,,,,,,,,,,,,,,,,,,,,,,,,,,,,a,001,2020_Jun_03_1437,mousePos3,2020.1.3,59.97979876167627,
,,,,7,0,7,0,,,,,,,,,,,,,,,,,,,,,"[1, 1, 1, 1, 1, 1, 1, 1, 1, 1, 1, 1, 1, 1]",60,,,,,,,,,,,,,,,,,,,,,"[-0.20052083333333334, -0.20052083333333334, -0.20052083333333334, -0.20052083333333334, -0.20052083333333334, -0.20052083333333334, -0.20052083333333334, -0.20052083333333334, -0.20052083333333334, -0.20052083333333334, -0.20052083333333334, -0.20052083333333334, -0.20052083333333334, -0.20052083333333334]","[0.13020833333333334, 0.13020833333333334, 0.13020833333333334, 0.13020833333333334, 0.13020833333333334, 0.13020833333333334, 0.13020833333333334, 0.13020833333333334, 0.13020833333333334, 0.13020833333333334, 0.13020833333333334, 0.13020833333333334, 0.13020833333333334, 0.13020833333333334]","[0, 0, 0, 0, 0, 0, 0, 0, 0, 0, 0, 0, 0, 0]","[0, 0, 0, 0, 0, 0, 0, 0, 0, 0, 0, 0, 0, 0]","[0, 0, 0, 0, 0, 0, 0, 0, 0, 0, 0, 0, 0, 0]","[0.0027631998527795076, 0.013662999961525202, 0.030651099979877472, 0.04719469998963177, 0.06391239981167018, 0.08057079999707639, 0.09720660001039505, 0.1138088998850435, 0.13096649991348386, 0.147209299961105, 0.16380909993313253, 0.18050109990872443, 0.19713789992965758, 0.2138478998094797]",31.471703599905595,None,31.471703599905595,None,31.471703599905595,None,31.471703599905595,None,31.471703599905595,None,space,0.20429879985749722,31.471703599905595,None,,,,,,,,,,,,,,,,,,,,,,,,,,,,,,,a,001,2020_Jun_03_1437,mousePos3,2020.1.3,59.97979876167627,
,,,,8,0,8,0,,,,,,,,,,,,,,,,,,,,,"[1, 1, 1, 1, 1, 1, 1, 1, 1, 1, 1, 1, 1, 1, 1]",30,,,,,,,,,,,,,,,,,,,,,"[-0.20052083333333334, -0.20052083333333334, -0.20052083333333334, -0.20052083333333334, -0.20052083333333334, -0.20052083333333334, -0.20052083333333334, -0.20052083333333334, -0.20052083333333334, -0.20052083333333334, -0.20052083333333334, -0.20052083333333334, -0.20052083333333334, -0.20052083333333334, -0.20052083333333334]","[0.13020833333333334, 0.13020833333333334, 0.13020833333333334, 0.13020833333333334, 0.13020833333333334, 0.13020833333333334, 0.13020833333333334, 0.13020833333333334, 0.13020833333333334, 0.13020833333333334, 0.13020833333333334, 0.13020833333333334, 0.13020833333333334, 0.13020833333333334, 0.13020833333333334]","[0, 0, 0, 0, 0, 0, 0, 0, 0, 0, 0, 0, 0, 0, 0]","[0, 0, 0, 0, 0, 0, 0, 0, 0, 0, 0, 0, 0, 0, 0]","[0, 0, 0, 0, 0, 0, 0, 0, 0, 0, 0, 0, 0, 0, 0]","[0.0031852000392973423, 0.013274800032377243, 0.032062399899587035, 0.04928999999538064, 0.06590599985793233, 0.08253429993055761, 0.09961729985661805, 0.11579319997690618, 0.13253489998169243, 0.14921929989941418, 0.16581789986230433, 0.18251849990338087, 0.19914989988319576, 0.2158089999575168, 0.23314279993064702]",31.7030382999219,None,31.7030382999219,None,31.7030382999219,None,31.7030382999219,None,31.7030382999219,None,space,0.21303720003925264,31.7030382999219,None,,,,,,,,,,,,,,,,,,,,,,,,,,,,,,,a,001,2020_Jun_03_1437,mousePos3,2020.1.3,59.97979876167627,
,,,,9,0,9,0,,,,,,,,,,,,,,,,,,,,,"[1, 1, 1, 1, 1, 1, 1, 1, 1, 1, 1, 1, 1, 1, 1]",60,,,,,,,,,,,,,,,,,,,,,"[-0.20052083333333334, -0.20052083333333334, -0.20052083333333334, -0.20052083333333334, -0.20052083333333334, -0.20052083333333334, -0.20052083333333334, -0.20052083333333334, -0.20052083333333334, -0.20052083333333334, -0.20052083333333334, -0.20052083333333334, -0.20052083333333334, -0.20052083333333334, -0.20052083333333334]","[0.13020833333333334, 0.13020833333333334, 0.13020833333333334, 0.13020833333333334, 0.13020833333333334, 0.13020833333333334, 0.13020833333333334, 0.13020833333333334, 0.13020833333333334, 0.13020833333333334, 0.13020833333333334, 0.13020833333333334, 0.13020833333333334, 0.13020833333333334, 0.13020833333333334]","[0, 0, 0, 0, 0, 0, 0, 0, 0, 0, 0, 0, 0, 0, 0]","[0, 0, 0, 0, 0, 0, 0, 0, 0, 0, 0, 0, 0, 0, 0]","[0, 0, 0, 0, 0, 0, 0, 0, 0, 0, 0, 0, 0, 0, 0]","[0.0032722000032663345, 0.014323299983516335, 0.03156839986331761, 0.048297599889338017, 0.06492889998480678, 0.0816562999971211, 0.09829710004851222, 0.11490719998255372, 0.1315766000188887, 0.1482791998423636, 0.16491379984654486, 0.18156629987061024, 0.1982778999954462, 0.21482849982567132, 0.232037799898535]",31.95436320011504,None,31.95436320011504,None,31.95436320011504,None,31.95436320011504,None,31.95436320011504,None,space,0.21800509979948401,31.95436320011504,None,,,,,,,,,,,,,,,,,,,,,,,,,,,,,,,a,001,2020_Jun_03_1437,mousePos3,2020.1.3,59.97979876167627,
,,,,10,0,10,0,,,,,,,,,,,,,,,,,,,,,"[1, 1, 1, 1, 1, 1, 1, 1, 1, 1, 1, 1, 1, 1, 1]",30,,,,,,,,,,,,,,,,,,,,,"[-0.20052083333333334, -0.20052083333333334, -0.20052083333333334, -0.20052083333333334, -0.20052083333333334, -0.20052083333333334, -0.20052083333333334, -0.20052083333333334, -0.20052083333333334, -0.20052083333333334, -0.20052083333333334, -0.20052083333333334, -0.20052083333333334, -0.20052083333333334, -0.20052083333333334]","[0.13020833333333334, 0.13020833333333334, 0.13020833333333334, 0.13020833333333334, 0.13020833333333334, 0.13020833333333334, 0.13020833333333334, 0.13020833333333334, 0.13020833333333334, 0.13020833333333334, 0.13020833333333334, 0.13020833333333334, 0.13020833333333334, 0.13020833333333334, 0.13020833333333334]","[0, 0, 0, 0, 0, 0, 0, 0, 0, 0, 0, 0, 0, 0, 0]","[0, 0, 0, 0, 0, 0, 0, 0, 0, 0, 0, 0, 0, 0, 0]","[0, 0, 0, 0, 0, 0, 0, 0, 0, 0, 0, 0, 0, 0, 0]","[0.003060299903154373, 0.014547999948263168, 0.026494499994441867, 0.04317949991673231, 0.059641199884936213, 0.07630289997905493, 0.09300270001403987, 0.10967389983125031, 0.1263335000257939, 0.14305970002897084, 0.1596406998578459, 0.17634919984266162, 0.19296119990758598, 0.2096406000200659, 0.22627989994361997]",32.20986489998177,None,32.20986489998177,None,32.20986489998177,None,32.20986489998177,None,32.20986489998177,None,space,0.20213109999895096,32.20986489998177,None,,,,,,,,,,,,,,,,,,,,,,,,,,,,,,,a,001,2020_Jun_03_1437,mousePos3,2020.1.3,59.97979876167627,
,,,,11,0,11,0,,,,,,,,,,,,,,,,,,,,,"[1, 1, 1, 1, 1, 1, 1, 1, 1, 1, 1, 1]",60,,,,,,,,,,,,,,,,,,,,,"[-0.20052083333333334, -0.20052083333333334, -0.20052083333333334, -0.20052083333333334, -0.20052083333333334, -0.20052083333333334, -0.20052083333333334, -0.20052083333333334, -0.20052083333333334, -0.20052083333333334, -0.20052083333333334, -0.20052083333333334]","[0.13020833333333334, 0.13020833333333334, 0.13020833333333334, 0.13020833333333334, 0.13020833333333334, 0.13020833333333334, 0.13020833333333334, 0.13020833333333334, 0.13020833333333334, 0.13020833333333334, 0.13020833333333334, 0.13020833333333334]","[0, 0, 0, 0, 0, 0, 0, 0, 0, 0, 0, 0]","[0, 0, 0, 0, 0, 0, 0, 0, 0, 0, 0, 0]","[0, 0, 0, 0, 0, 0, 0, 0, 0, 0, 0, 0]","[0.002987199928611517, 0.014271999942138791, 0.03185279993340373, 0.048536699963733554, 0.0652027998585254, 0.08189829997718334, 0.09854849986732006, 0.11558220000006258, 0.13186979992315173, 0.148484299890697, 0.16517459996975958, 0.18260709987953305]",32.45387420011684,None,32.45387420011684,None,32.45387420011684,None,32.45387420011684,None,32.45387420011684,None,space,0.1666568999644369,32.45387420011684,None,,,,,,,,,,,,,,,,,,,,,,,,,,,,,,,a,001,2020_Jun_03_1437,mousePos3,2020.1.3,59.97979876167627,
,,,,12,0,12,0,,,,,,,,,,,,,,,,,,,,,"[1, 1, 1, 1, 1, 1, 1, 1, 1, 1, 1, 1]",30,,,,,,,,,,,,,,,,,,,,,"[-0.20052083333333334, -0.20052083333333334, -0.20052083333333334, -0.20052083333333334, -0.20052083333333334, -0.20052083333333334, -0.20052083333333334, -0.20052083333333334, -0.20052083333333334, -0.20052083333333334, -0.20052083333333334, -0.20052083333333334]","[0.13020833333333334, 0.13020833333333334, 0.13020833333333334, 0.13020833333333334, 0.13020833333333334, 0.13020833333333334, 0.13020833333333334, 0.13020833333333334, 0.13020833333333334, 0.13020833333333334, 0.13020833333333334, 0.13020833333333334]","[0, 0, 0, 0, 0, 0, 0, 0, 0, 0, 0, 0]","[0, 0, 0, 0, 0, 0, 0, 0, 0, 0, 0, 0]","[0, 0, 0, 0, 0, 0, 0, 0, 0, 0, 0, 0]","[0.002939400030300021, 0.013177199987694621, 0.0315766001585871, 0.04872269998304546, 0.06547050015069544, 0.08273070002906024, 0.09877200005576015, 0.11547740013338625, 0.13209159998223186, 0.1487062000669539, 0.1653764999937266, 0.18292150017805398]",32.6533079999499,None,32.6533079999499,None,32.6533079999499,None,32.6533079999499,None,32.6533079999499,None,space,0.16703810007311404,32.6533079999499,None,,,,,,,,,,,,,,,,,,,,,,,,,,,,,,,a,001,2020_Jun_03_1437,mousePos3,2020.1.3,59.97979876167627,
,,,,13,0,13,0,,,,,,,,,,,,,,,,,,,,,"[1, 1, 1, 1, 1, 1, 1, 1, 1, 1, 1, 1, 1, 1]",60,,,,,,,,,,,,,,,,,,,,,"[-0.20052083333333334, -0.20052083333333334, -0.20052083333333334, -0.20052083333333334, -0.20052083333333334, -0.20052083333333334, -0.20052083333333334, -0.20052083333333334, -0.20052083333333334, -0.20052083333333334, -0.20052083333333334, -0.20052083333333334, -0.20052083333333334, -0.20052083333333334]","[0.13020833333333334, 0.13020833333333334, 0.13020833333333334, 0.13020833333333334, 0.13020833333333334, 0.13020833333333334, 0.13020833333333334, 0.13020833333333334, 0.13020833333333334, 0.13020833333333334, 0.13020833333333334, 0.13020833333333334, 0.13020833333333334, 0.13020833333333334]","[0, 0, 0, 0, 0, 0, 0, 0, 0, 0, 0, 0, 0, 0]","[0, 0, 0, 0, 0, 0, 0, 0, 0, 0, 0, 0, 0, 0]","[0, 0, 0, 0, 0, 0, 0, 0, 0, 0, 0, 0, 0, 0]","[0.00326110003516078, 0.013320599915459752, 0.03162739984691143, 0.048284499906003475, 0.0649492999073118, 0.08160809986293316, 0.0982182000298053, 0.1154750999994576, 0.1320867999456823, 0.14818469993770123, 0.16489110002294183, 0.18159909988753498, 0.19823139999061823, 0.21489549987018108]",32.85365099995397,None,32.85365099995397,None,32.85365099995397,None,32.85365099995397,None,32.85365099995397,None,space,0.19039259990677238,32.85365099995397,None,,,,,,,,,,,,,,,,,,,,,,,,,,,,,,,a,001,2020_Jun_03_1437,mousePos3,2020.1.3,59.97979876167627,
,,,,14,0,14,0,,,,,,,,,,,,,,,,,,,,,"[1, 1, 1, 1, 1, 1, 1, 1, 1, 1, 1, 1, 1, 1]",30,,,,,,,,,,,,,,,,,,,,,"[-0.20052083333333334, -0.20052083333333334, -0.20052083333333334, -0.20052083333333334, -0.20052083333333334, -0.20052083333333334, -0.20052083333333334, -0.20052083333333334, -0.20052083333333334, -0.20052083333333334, -0.20052083333333334, -0.20052083333333334, -0.20052083333333334, -0.20052083333333334]","[0.13020833333333334, 0.13020833333333334, 0.13020833333333334, 0.13020833333333334, 0.13020833333333334, 0.13020833333333334, 0.13020833333333334, 0.13020833333333334, 0.13020833333333334, 0.13020833333333334, 0.13020833333333334, 0.13020833333333334, 0.13020833333333334, 0.13020833333333334]","[0, 0, 0, 0, 0, 0, 0, 0, 0, 0, 0, 0, 0, 0]","[0, 0, 0, 0, 0, 0, 0, 0, 0, 0, 0, 0, 0, 0]","[0, 0, 0, 0, 0, 0, 0, 0, 0, 0, 0, 0, 0, 0]","[0.003099899971857667, 0.013814599951729178, 0.03253600001335144, 0.04988830001093447, 0.06638529989868402, 0.08300009998492897, 0.1002119998447597, 0.11654610000550747, 0.13309339992702007, 0.1497567999176681, 0.1664107998367399, 0.18308170000091195, 0.19977870001457632, 0.2172298999503255]",33.085355600109324,None,33.085355600109324,None,33.085355600109324,None,33.085355600109324,None,33.085355600109324,None,space,0.1986982999369502,33.085355600109324,None,,,,,,,,,,,,,,,,,,,,,,,,,,,,,,,a,001,2020_Jun_03_1437,mousePos3,2020.1.3,59.97979876167627,
,,,,15,0,15,0,,,,,,,,,,,,,,,,,,,,,"[1, 1, 1, 1, 1, 1, 1, 1, 1, 1, 1, 1, 1, 1, 1]",60,,,,,,,,,,,,,,,,,,,,,"[-0.20052083333333334, -0.20052083333333334, -0.20052083333333334, -0.20052083333333334, -0.20052083333333334, -0.20052083333333334, -0.20052083333333334, -0.20052083333333334, -0.20052083333333334, -0.20052083333333334, -0.20052083333333334, -0.20052083333333334, -0.20052083333333334, -0.20052083333333334, -0.20052083333333334]","[0.13020833333333334, 0.13020833333333334, 0.13020833333333334, 0.13020833333333334, 0.13020833333333334, 0.13020833333333334, 0.13020833333333334, 0.13020833333333334, 0.13020833333333334, 0.13020833333333334, 0.13020833333333334, 0.13020833333333334, 0.13020833333333334, 0.13020833333333334, 0.13020833333333334]","[0, 0, 0, 0, 0, 0, 0, 0, 0, 0, 0, 0, 0, 0, 0]","[0, 0, 0, 0, 0, 0, 0, 0, 0, 0, 0, 0, 0, 0, 0]","[0, 0, 0, 0, 0, 0, 0, 0, 0, 0, 0, 0, 0, 0, 0]","[0.002881400054320693, 0.013370299944654107, 0.03184020007029176, 0.04849389987066388, 0.06518199993297458, 0.08193819993175566, 0.09890270000323653, 0.11520350002683699, 0.1318341998849064, 0.14852160005830228, 0.16512589994817972, 0.18180819996632636, 0.19846519990824163, 0.21515559987165034, 0.23220680002123117]",33.32021120004356,None,33.32021120004356,None,33.32021120004356,None,33.32021120004356,None,33.32021120004356,None,space,0.21185920014977455,33.32021120004356,None,,,,,,,,,,,,,,,,,,,,,,,,,,,,,,,a,001,2020_Jun_03_1437,mousePos3,2020.1.3,59.97979876167627,
,,,,16,0,16,0,,,,,,,,,,,,,,,,,,,,,"[1, 1, 1, 1, 1, 1, 1, 1, 1, 1, 1, 1, 1, 1]",30,,,,,,,,,,,,,,,,,,,,,"[-0.20052083333333334, -0.20052083333333334, -0.20052083333333334, -0.20052083333333334, -0.20052083333333334, -0.20052083333333334, -0.20052083333333334, -0.20052083333333334, -0.20052083333333334, -0.20052083333333334, -0.20052083333333334, -0.20052083333333334, -0.20052083333333334, -0.20052083333333334]","[0.13020833333333334, 0.13020833333333334, 0.13020833333333334, 0.13020833333333334, 0.13020833333333334, 0.13020833333333334, 0.13020833333333334, 0.13020833333333334, 0.13020833333333334, 0.13020833333333334, 0.13020833333333334, 0.13020833333333334, 0.13020833333333334, 0.13020833333333334]","[0, 0, 0, 0, 0, 0, 0, 0, 0, 0, 0, 0, 0, 0]","[0, 0, 0, 0, 0, 0, 0, 0, 0, 0, 0, 0, 0, 0]","[0, 0, 0, 0, 0, 0, 0, 0, 0, 0, 0, 0, 0, 0]","[0.0029172999784350395, 0.013520400039851665, 0.031467300141230226, 0.04872249998152256, 0.06544829998165369, 0.0820862001273781, 0.09880040003918111, 0.11538269999437034, 0.13208180014044046, 0.14900700002908707, 0.16538970009423792, 0.18204580014571548, 0.19876560010015965, 0.21577959996648133]",33.569457200123,None,33.569457200123,None,33.569457200123,None,33.569457200123,None,33.569457200123,None,space,0.19471439998596907,33.569457200123,None,,,,,,,,,,,,,,,,,,,,,,,,,,,,,,,a,001,2020_Jun_03_1437,mousePos3,2020.1.3,59.97979876167627,
,,,,17,0,17,0,,,,,,,,,,,,,,,,,,,,,"[1, 1, 1, 1, 1, 1, 1, 1, 1, 1, 1, 1, 1, 1]",60,,,,,,,,,,,,,,,,,,,,,"[-0.20052083333333334, -0.20052083333333334, -0.20052083333333334, -0.20052083333333334, -0.20052083333333334, -0.20052083333333334, -0.20052083333333334, -0.20052083333333334, -0.20052083333333334, -0.20052083333333334, -0.20052083333333334, -0.20052083333333334, -0.20052083333333334, -0.20052083333333334]","[0.13020833333333334, 0.13020833333333334, 0.13020833333333334, 0.13020833333333334, 0.13020833333333334, 0.13020833333333334, 0.13020833333333334, 0.13020833333333334, 0.13020833333333334, 0.13020833333333334, 0.13020833333333334, 0.13020833333333334, 0.13020833333333334, 0.13020833333333334]","[0, 0, 0, 0, 0, 0, 0, 0, 0, 0, 0, 0, 0, 0]","[0, 0, 0, 0, 0, 0, 0, 0, 0, 0, 0, 0, 0, 0]","[0, 0, 0, 0, 0, 0, 0, 0, 0, 0, 0, 0, 0, 0]","[0.0037115998566150665, 0.014237399911507964, 0.031825399957597256, 0.04862009990029037, 0.06530119990929961, 0.08190310001373291, 0.09854959999211133, 0.11519739986397326, 0.13177810003980994, 0.14849899988621473, 0.1652583999093622, 0.18184640002436936, 0.19841579999774694, 0.2154786998871714]",33.804239300079644,None,33.804239300079644,None,33.804239300079644,None,33.804239300079644,None,33.804239300079644,None,space,0.19976830016821623,33.804239300079644,None,,,,,,,,,,,,,,,,,,,,,,,,,,,,,,,a,001,2020_Jun_03_1437,mousePos3,2020.1.3,59.97979876167627,
,,,,18,0,18,0,,,,,,,,,,,,,,,,,,,,,"[1, 1, 1, 1, 1, 1, 1, 1, 1, 1, 1, 1, 1, 1]",30,,,,,,,,,,,,,,,,,,,,,"[-0.20052083333333334, -0.20052083333333334, -0.20052083333333334, -0.20052083333333334, -0.20052083333333334, -0.20052083333333334, -0.20052083333333334, -0.20052083333333334, -0.20052083333333334, -0.20052083333333334, -0.20052083333333334, -0.20052083333333334, -0.20052083333333334, -0.20052083333333334]","[0.13020833333333334, 0.13020833333333334, 0.13020833333333334, 0.13020833333333334, 0.13020833333333334, 0.13020833333333334, 0.13020833333333334, 0.13020833333333334, 0.13020833333333334, 0.13020833333333334, 0.13020833333333334, 0.13020833333333334, 0.13020833333333334, 0.13020833333333334]","[0, 0, 0, 0, 0, 0, 0, 0, 0, 0, 0, 0, 0, 0]","[0, 0, 0, 0, 0, 0, 0, 0, 0, 0, 0, 0, 0, 0]","[0, 0, 0, 0, 0, 0, 0, 0, 0, 0, 0, 0, 0, 0]","[0.002873999997973442, 0.014355000108480453, 0.031504099955782294, 0.048096700105816126, 0.06480970000848174, 0.08142880001105368, 0.09829170000739396, 0.11478750011883676, 0.13147610006853938, 0.14810610003769398, 0.16473320010118186, 0.18139369995333254, 0.19805590016767383, 0.2154057000298053]",34.03730929992162,None,34.03730929992162,None,34.03730929992162,None,34.03730929992162,None,34.03730929992162,None,space,0.19875289988704026,34.03730929992162,None,,,,,,,,,,,,,,,,,,,,,,,,,,,,,,,a,001,2020_Jun_03_1437,mousePos3,2020.1.3,59.97979876167627,
,,,,19,0,19,0,,,,,,,,,,,,,,,,,,,,,"[1, 1, 1, 1, 1, 1, 1, 1, 1, 1, 1, 1, 1]",60,,,,,,,,,,,,,,,,,,,,,"[-0.20052083333333334, -0.20052083333333334, -0.20052083333333334, -0.20052083333333334, -0.20052083333333334, -0.20052083333333334, -0.20052083333333334, -0.20052083333333334, -0.20052083333333334, -0.20052083333333334, -0.20052083333333334, -0.20052083333333334, -0.20052083333333334]","[0.13020833333333334, 0.13020833333333334, 0.13020833333333334, 0.13020833333333334, 0.13020833333333334, 0.13020833333333334, 0.13020833333333334, 0.13020833333333334, 0.13020833333333334, 0.13020833333333334, 0.13020833333333334, 0.13020833333333334, 0.13020833333333334]","[0, 0, 0, 0, 0, 0, 0, 0, 0, 0, 0, 0, 0]","[0, 0, 0, 0, 0, 0, 0, 0, 0, 0, 0, 0, 0]","[0, 0, 0, 0, 0, 0, 0, 0, 0, 0, 0, 0, 0]","[0.003039700211957097, 0.014586600009351969, 0.03178980015218258, 0.048921000212430954, 0.0656957000028342, 0.08315610000863671, 0.09903010004200041, 0.11567550012841821, 0.1323207002133131, 0.1489918001461774, 0.16568370000459254, 0.18244750006124377, 0.19892770005390048]",34.26995830005035,None,34.26995830005035,None,34.26995830005035,None,34.26995830005035,None,34.26995830005035,None,space,0.17399160005152225,34.26995830005035,None,,,,,,,,,,,,,,,,,,,,,,,,,,,,,,,a,001,2020_Jun_03_1437,mousePos3,2020.1.3,59.97979876167627,
,,,,20,0,20,0,,,,,,,,,,,,,,,,,,,,,"[1, 1, 1, 1, 1, 1, 1, 1, 1, 1, 1, 1, 1, 1]",30,,,,,,,,,,,,,,,,,,,,,"[-0.20052083333333334, -0.20052083333333334, -0.20052083333333334, -0.20052083333333334, -0.20052083333333334, -0.20052083333333334, -0.20052083333333334, -0.20052083333333334, -0.20052083333333334, -0.20052083333333334, -0.20052083333333334, -0.20052083333333334, -0.20052083333333334, -0.20052083333333334]","[0.13020833333333334, 0.13020833333333334, 0.13020833333333334, 0.13020833333333334, 0.13020833333333334, 0.13020833333333334, 0.13020833333333334, 0.13020833333333334, 0.13020833333333334, 0.13020833333333334, 0.13020833333333334, 0.13020833333333334, 0.13020833333333334, 0.13020833333333334]","[0, 0, 0, 0, 0, 0, 0, 0, 0, 0, 0, 0, 0, 0]","[0, 0, 0, 0, 0, 0, 0, 0, 0, 0, 0, 0, 0, 0]","[0, 0, 0, 0, 0, 0, 0, 0, 0, 0, 0, 0, 0, 0]","[0.0030131000094115734, 0.01446899981237948, 0.02791609987616539, 0.04458469990640879, 0.06129039986990392, 0.07791389990597963, 0.09459250001236796, 0.1117328000254929, 0.1279058000072837, 0.14454539981670678, 0.16123249987140298, 0.17796769994311035, 0.19455379992723465, 0.21124399988912046]",34.49127970007248,None,34.49127970007248,None,34.49127970007248,None,34.49127970007248,None,34.49127970007248,None,space,0.18475600006058812,34.49127970007248,None,,,,,,,,,,,,,,,,,,,,,,,,,,,,,,,a,001,2020_Jun_03_1437,mousePos3,2020.1.3,59.97979876167627,
,,,,21,0,21,0,,,,,,,,,,,,,,,,,,,,,"[1, 1, 1, 1, 1, 1, 1, 1, 1, 1, 1, 1, 1, 1]",60,,,,,,,,,,,,,,,,,,,,,"[-0.20052083333333334, -0.20052083333333334, -0.20052083333333334, -0.20052083333333334, -0.20052083333333334, -0.20052083333333334, -0.20052083333333334, -0.20052083333333334, -0.20052083333333334, -0.20052083333333334, -0.20052083333333334, -0.20052083333333334, -0.20052083333333334, -0.20052083333333334]","[0.13020833333333334, 0.13020833333333334, 0.13020833333333334, 0.13020833333333334, 0.13020833333333334, 0.13020833333333334, 0.13020833333333334, 0.13020833333333334, 0.13020833333333334, 0.13020833333333334, 0.13020833333333334, 0.13020833333333334, 0.13020833333333334, 0.13020833333333334]","[0, 0, 0, 0, 0, 0, 0, 0, 0, 0, 0, 0, 0, 0]","[0, 0, 0, 0, 0, 0, 0, 0, 0, 0, 0, 0, 0, 0]","[0, 0, 0, 0, 0, 0, 0, 0, 0, 0, 0, 0, 0, 0]","[0.003191899973899126, 0.013755799969658256, 0.031774100149050355, 0.04898299998603761, 0.06556520005688071, 0.08216590015217662, 0.098798300139606, 0.11610900005325675, 0.1322097999509424, 0.14889900013804436, 0.1655171001330018, 0.18220280017703772, 0.19876860012300313, 0.21598390000872314]",34.719370499951765,None,34.719370499951765,None,34.719370499951765,None,34.719370499951765,None,34.719370499951765,None,space,0.19661410013213754,34.719370499951765,None,,,,,,,,,,,,,,,,,,,,,,,,,,,,,,,a,001,2020_Jun_03_1437,mousePos3,2020.1.3,59.97979876167627,
,,,,22,0,22,0,,,,,,,,,,,,,,,,,,,,,"[1, 1, 1, 1, 1, 1, 1, 1, 1, 1, 1, 1, 1, 1, 1]",30,,,,,,,,,,,,,,,,,,,,,"[-0.20052083333333334, -0.20052083333333334, -0.20052083333333334, -0.20052083333333334, -0.20052083333333334, -0.20052083333333334, -0.20052083333333334, -0.20052083333333334, -0.20052083333333334, -0.20052083333333334, -0.20052083333333334, -0.20052083333333334, -0.20052083333333334, -0.20052083333333334, -0.20052083333333334]","[0.13020833333333334, 0.13020833333333334, 0.13020833333333334, 0.13020833333333334, 0.13020833333333334, 0.13020833333333334, 0.13020833333333334, 0.13020833333333334, 0.13020833333333334, 0.13020833333333334, 0.13020833333333334, 0.13020833333333334, 0.13020833333333334, 0.13020833333333334, 0.13020833333333334]","[0, 0, 0, 0, 0, 0, 0, 0, 0, 0, 0, 0, 0, 0, 0]","[0, 0, 0, 0, 0, 0, 0, 0, 0, 0, 0, 0, 0, 0, 0]","[0, 0, 0, 0, 0, 0, 0, 0, 0, 0, 0, 0, 0, 0, 0]","[0.002882499946281314, 0.012926999945193529, 0.03173879999667406, 0.049080600030720234, 0.06573849986307323, 0.08228480000980198, 0.09905129997059703, 0.11574069992639124, 0.13281119987368584, 0.14901439985260367, 0.16569880000315607, 0.18241879995912313, 0.19905619998462498, 0.2156837999355048, 0.23336820001713932]",34.952166700037196,None,34.952166700037196,None,34.952166700037196,None,34.952166700037196,None,34.952166700037196,None,space,0.2117485001217574,34.952166700037196,None,,,,,,,,,,,,,,,,,,,,,,,,,,,,,,,a,001,2020_Jun_03_1437,mousePos3,2020.1.3,59.97979876167627,
,,,,23,0,23,0,,,,,,,,,,,,,,,,,,,,,"[1, 1, 1, 1, 1, 1, 1, 1, 1, 1, 1, 1, 1, 1]",60,,,,,,,,,,,,,,,,,,,,,"[-0.20052083333333334, -0.20052083333333334, -0.20052083333333334, -0.20052083333333334, -0.20052083333333334, -0.20052083333333334, -0.20052083333333334, -0.20052083333333334, -0.20052083333333334, -0.20052083333333334, -0.20052083333333334, -0.20052083333333334, -0.20052083333333334, -0.20052083333333334]","[0.13020833333333334, 0.13020833333333334, 0.13020833333333334, 0.13020833333333334, 0.13020833333333334, 0.13020833333333334, 0.13020833333333334, 0.13020833333333334, 0.13020833333333334, 0.13020833333333334, 0.13020833333333334, 0.13020833333333334, 0.13020833333333334, 0.13020833333333334]","[0, 0, 0, 0, 0, 0, 0, 0, 0, 0, 0, 0, 0, 0]","[0, 0, 0, 0, 0, 0, 0, 0, 0, 0, 0, 0, 0, 0]","[0, 0, 0, 0, 0, 0, 0, 0, 0, 0, 0, 0, 0, 0]","[0.003023900091648102, 0.013391300104558468, 0.03139959997497499, 0.048639100044965744, 0.0652594999410212, 0.08184419991448522, 0.09848510008305311, 0.11517970007844269, 0.13188290013931692, 0.1485592001117766, 0.1652303000446409, 0.18192859995178878, 0.19864369998686016, 0.21554600005038083]",35.20282349991612,None,35.20282349991612,None,35.20282349991612,None,35.20282349991612,None,35.20282349991612,None,space,0.1935618999414146,35.20282349991612,None,,,,,,,,,,,,,,,,,,,,,,,,,,,,,,,a,001,2020_Jun_03_1437,mousePos3,2020.1.3,59.97979876167627,
,,,,24,0,24,0,,,,,,,,,,,,,,,,,,,,,"[1, 1, 1, 1, 1, 1, 1, 1, 1, 1, 1, 1, 1, 1, 1]",30,,,,,,,,,,,,,,,,,,,,,"[-0.20052083333333334, -0.20052083333333334, -0.20052083333333334, -0.20052083333333334, -0.20052083333333334, -0.20052083333333334, -0.20052083333333334, -0.20052083333333334, -0.20052083333333334, -0.20052083333333334, -0.20052083333333334, -0.20052083333333334, -0.20052083333333334, -0.20052083333333334, -0.20052083333333334]","[0.13020833333333334, 0.13020833333333334, 0.13020833333333334, 0.13020833333333334, 0.13020833333333334, 0.13020833333333334, 0.13020833333333334, 0.13020833333333334, 0.13020833333333334, 0.13020833333333334, 0.13020833333333334, 0.13020833333333334, 0.13020833333333334, 0.13020833333333334, 0.13020833333333334]","[0, 0, 0, 0, 0, 0, 0, 0, 0, 0, 0, 0, 0, 0, 0]","[0, 0, 0, 0, 0, 0, 0, 0, 0, 0, 0, 0, 0, 0, 0]","[0, 0, 0, 0, 0, 0, 0, 0, 0, 0, 0, 0, 0, 0, 0]","[0.0030932999216020107, 0.014526299899443984, 0.029795299982652068, 0.04637819994240999, 0.06311719981022179, 0.07975299982354045, 0.09689829987473786, 0.11314369994215667, 0.12977649993263185, 0.1463764999061823, 0.16303749987855554, 0.17968779988586903, 0.1963780999649316, 0.2129954998381436, 0.22973359981551766]",35.43883610004559,None,35.43883610004559,None,35.43883610004559,None,35.43883610004559,None,35.43883610004559,None,space,0.2051506000570953,35.43883610004559,None,,,,,,,,,,,,,,,,,,,,,,,,,,,,,,,a,001,2020_Jun_03_1437,mousePos3,2020.1.3,59.97979876167627,
,,,,25,0,25,0,,,,,,,,,,,,,,,,,,,,,"[1, 1, 1, 1, 1, 1, 1, 1, 1, 1, 1, 1, 1, 1]",60,,,,,,,,,,,,,,,,,,,,,"[-0.20052083333333334, -0.20052083333333334, -0.20052083333333334, -0.20052083333333334, -0.20052083333333334, -0.20052083333333334, -0.20052083333333334, -0.20052083333333334, -0.20052083333333334, -0.20052083333333334, -0.20052083333333334, -0.20052083333333334, -0.20052083333333334, -0.20052083333333334]","[0.13020833333333334, 0.13020833333333334, 0.13020833333333334, 0.13020833333333334, 0.13020833333333334, 0.13020833333333334, 0.13020833333333334, 0.13020833333333334, 0.13020833333333334, 0.13020833333333334, 0.13020833333333334, 0.13020833333333334, 0.13020833333333334, 0.13020833333333334]","[0, 0, 0, 0, 0, 0, 0, 0, 0, 0, 0, 0, 0, 0]","[0, 0, 0, 0, 0, 0, 0, 0, 0, 0, 0, 0, 0, 0]","[0, 0, 0, 0, 0, 0, 0, 0, 0, 0, 0, 0, 0, 0]","[0.0029239999130368233, 0.01345740002579987, 0.03235209989361465, 0.04956539999693632, 0.0662250998429954, 0.08337190002202988, 0.09951890003867447, 0.11625139997340739, 0.13335409993305802, 0.14948119991458952, 0.1661948999390006, 0.18281619995832443, 0.19967220001854002, 0.2165787999983877]",35.68472140002996,None,35.68472140002996,None,35.68472140002996,None,35.68472140002996,None,35.68472140002996,None,space,0.1992979000788182,35.68472140002996,None,,,,,,,,,,,,,,,,,,,,,,,,,,,,,,,a,001,2020_Jun_03_1437,mousePos3,2020.1.3,59.97979876167627,
,,,,26,0,26,0,,,,,,,,,,,,,,,,,,,,,"[1, 1, 1, 1, 1, 1, 1, 1, 1, 1, 1, 1, 1, 1, 1, 1, 1, 1, 1, 1, 1, 1, 1, 1, 1, 1, 1, 1]",30,,,,,,,,,,,,,,,,,,,,,"[-0.20052083333333334, -0.20052083333333334, -0.20052083333333334, -0.20052083333333334, -0.20052083333333334, -0.20052083333333334, -0.20052083333333334, -0.20052083333333334, -0.20052083333333334, -0.20052083333333334, -0.20052083333333334, -0.20052083333333334, -0.20052083333333334, -0.20052083333333334, -0.20052083333333334, -0.20052083333333334, -0.20052083333333334, -0.20052083333333334, -0.20052083333333334, -0.20052083333333334, -0.20052083333333334, -0.20052083333333334, -0.20052083333333334, -0.20052083333333334, -0.20052083333333334, -0.20052083333333334, -0.20052083333333334, -0.20052083333333334]","[0.13020833333333334, 0.13020833333333334, 0.13020833333333334, 0.13020833333333334, 0.13020833333333334, 0.13020833333333334, 0.13020833333333334, 0.13020833333333334, 0.13020833333333334, 0.13020833333333334, 0.13020833333333334, 0.13020833333333334, 0.13020833333333334, 0.13020833333333334, 0.13020833333333334, 0.13020833333333334, 0.13020833333333334, 0.13020833333333334, 0.13020833333333334, 0.13020833333333334, 0.13020833333333334, 0.13020833333333334, 0.13020833333333334, 0.13020833333333334, 0.13020833333333334, 0.13020833333333334, 0.13020833333333334, 0.13020833333333334]","[0, 0, 0, 0, 0, 0, 0, 0, 0, 0, 0, 0, 0, 0, 0, 0, 0, 0, 0, 0, 0, 0, 0, 0, 0, 0, 0, 0]","[0, 0, 0, 0, 0, 0, 0, 0, 0, 0, 0, 0, 0, 0, 0, 0, 0, 0, 0, 0, 0, 0, 0, 0, 0, 0, 0, 0]","[0, 0, 0, 0, 0, 0, 0, 0, 0, 0, 0, 0, 0, 0, 0, 0, 0, 0, 0, 0, 0, 0, 0, 0, 0, 0, 0, 0]","[0.0029072000179439783, 0.013205999974161386, 0.031301300041377544, 0.04854890005663037, 0.06527099991217256, 0.08248330000787973, 0.09856639988720417, 0.11521489988081157, 0.13190359994769096, 0.1485578001011163, 0.1651975999120623, 0.181921900017187, 0.19849559990689158, 0.2154236000496894, 0.23189499997533858, 0.2485116000752896, 0.26519869989715517, 0.2818537999410182, 0.29870559996925294, 0.3153442998882383, 0.3318260998930782, 0.34856160008348525, 0.3651872999034822, 0.3818294000811875, 0.39848909992724657, 0.41522169997915626, 0.43182400008663535, 0.44906200002878904]",35.919183999998495,None,35.919183999998495,None,35.919183999998495,None,35.919183999998495,None,35.919183999998495,None,space,0.4370389000978321,35.919183999998495,None,,,,,,,,,,,,,,,,,,,,,,,,,,,,,,,a,001,2020_Jun_03_1437,mousePos3,2020.1.3,59.97979876167627,
,,,,27,0,27,0,,,,,,,,,,,,,,,,,,,,,"[1, 1, 1, 1, 1, 1, 1, 1, 1, 1, 1, 1, 1]",60,,,,,,,,,,,,,,,,,,,,,"[-0.20052083333333334, -0.20052083333333334, -0.20052083333333334, -0.20052083333333334, -0.20052083333333334, -0.20052083333333334, -0.20052083333333334, -0.20052083333333334, -0.20052083333333334, -0.20052083333333334, -0.20052083333333334, -0.20052083333333334, -0.20052083333333334]","[0.13020833333333334, 0.13020833333333334, 0.13020833333333334, 0.13020833333333334, 0.13020833333333334, 0.13020833333333334, 0.13020833333333334, 0.13020833333333334, 0.13020833333333334, 0.13020833333333334, 0.13020833333333334, 0.13020833333333334, 0.13020833333333334]","[0, 0, 0, 0, 0, 0, 0, 0, 0, 0, 0, 0, 0]","[0, 0, 0, 0, 0, 0, 0, 0, 0, 0, 0, 0, 0]","[0, 0, 0, 0, 0, 0, 0, 0, 0, 0, 0, 0, 0]","[0.0035020001232624054, 0.0146399000659585, 0.0319974001031369, 0.04854049999266863, 0.0657068002037704, 0.08172350004315376, 0.09856980014592409, 0.1151795000769198, 0.13185720006003976, 0.1485393000766635, 0.165547400014475, 0.18183740018866956, 0.19891620008274913]",36.38661399995908,None,36.38661399995908,None,36.38661399995908,None,36.38661399995908,None,36.38661399995908,None,space,0.17743039992637932,36.38661399995908,None,,,,,,,,,,,,,,,,,,,,,,,,,,,,,,,a,001,2020_Jun_03_1437,mousePos3,2020.1.3,59.97979876167627,
,,,,28,0,28,0,,,,,,,,,,,,,,,,,,,,,"[1, 1, 1, 1, 1, 1, 1, 1, 1, 1, 1, 1, 1]",30,,,,,,,,,,,,,,,,,,,,,"[-0.20052083333333334, -0.20052083333333334, -0.20052083333333334, -0.20052083333333334, -0.20052083333333334, -0.20052083333333334, -0.20052083333333334, -0.20052083333333334, -0.20052083333333334, -0.20052083333333334, -0.20052083333333334, -0.20052083333333334, -0.20052083333333334]","[0.13020833333333334, 0.13020833333333334, 0.13020833333333334, 0.13020833333333334, 0.13020833333333334, 0.13020833333333334, 0.13020833333333334, 0.13020833333333334, 0.13020833333333334, 0.13020833333333334, 0.13020833333333334, 0.13020833333333334, 0.13020833333333334]","[0, 0, 0, 0, 0, 0, 0, 0, 0, 0, 0, 0, 0]","[0, 0, 0, 0, 0, 0, 0, 0, 0, 0, 0, 0, 0]","[0, 0, 0, 0, 0, 0, 0, 0, 0, 0, 0, 0, 0]","[0.0032866999972611666, 0.013583900174126029, 0.03233740013092756, 0.04953600000590086, 0.06624309998005629, 0.08292119996622205, 0.09953940007835627, 0.11621950007975101, 0.13289350015111268, 0.1495829001069069, 0.16622070013545454, 0.18294339999556541, 0.19999830005690455]",36.60131939989515,None,36.60131939989515,None,36.60131939989515,None,36.60131939989515,None,36.60131939989515,None,space,0.18711249995976686,36.60131939989515,None,,,,,,,,,,,,,,,,,,,,,,,,,,,,,,,a,001,2020_Jun_03_1437,mousePos3,2020.1.3,59.97979876167627,
,,,,29,0,29,0,,,,,,,,,,,,,,,,,,,,,"[1, 1, 1, 1, 1, 1, 1, 1, 1, 1, 1, 1, 1, 1]",60,,,,,,,,,,,,,,,,,,,,,"[-0.20052083333333334, -0.20052083333333334, -0.20052083333333334, -0.20052083333333334, -0.20052083333333334, -0.20052083333333334, -0.20052083333333334, -0.20052083333333334, -0.20052083333333334, -0.20052083333333334, -0.20052083333333334, -0.20052083333333334, -0.20052083333333334, -0.20052083333333334]","[0.13020833333333334, 0.13020833333333334, 0.13020833333333334, 0.13020833333333334, 0.13020833333333334, 0.13020833333333334, 0.13020833333333334, 0.13020833333333334, 0.13020833333333334, 0.13020833333333334, 0.13020833333333334, 0.13020833333333334, 0.13020833333333334, 0.13020833333333334]","[0, 0, 0, 0, 0, 0, 0, 0, 0, 0, 0, 0, 0, 0]","[0, 0, 0, 0, 0, 0, 0, 0, 0, 0, 0, 0, 0, 0]","[0, 0, 0, 0, 0, 0, 0, 0, 0, 0, 0, 0, 0, 0]","[0.0028891998808830976, 0.013325999956578016, 0.0312497999984771, 0.04865860007703304, 0.06519389990717173, 0.08173420000821352, 0.09844260010868311, 0.11513979989103973, 0.131749999942258, 0.14860629988834262, 0.16510319989174604, 0.18173069995827973, 0.19839549995958805, 0.21537679992616177]",36.818996099988,None,36.818996099988,None,36.818996099988,None,36.818996099988,None,36.818996099988,None,space,0.20093360007740557,36.818996099988,None,,,,,,,,,,,,,,,,,,,,,,,,,,,,,,,a,001,2020_Jun_03_1437,mousePos3,2020.1.3,59.97979876167627,
,,,,30,0,30,0,,,,,,,,,,,,,,,,,,,,,"[1, 1, 1, 1, 1, 1, 1, 1, 1, 1, 1, 1, 1, 1, 1, 1]",30,,,,,,,,,,,,,,,,,,,,,"[-0.20052083333333334, -0.20052083333333334, -0.20052083333333334, -0.20052083333333334, -0.20052083333333334, -0.20052083333333334, -0.20052083333333334, -0.20052083333333334, -0.20052083333333334, -0.20052083333333334, -0.20052083333333334, -0.20052083333333334, -0.20052083333333334, -0.20052083333333334, -0.20052083333333334, -0.20052083333333334]","[0.13020833333333334, 0.13020833333333334, 0.13020833333333334, 0.13020833333333334, 0.13020833333333334, 0.13020833333333334, 0.13020833333333334, 0.13020833333333334, 0.13020833333333334, 0.13020833333333334, 0.13020833333333334, 0.13020833333333334, 0.13020833333333334, 0.13020833333333334, 0.13020833333333334, 0.13020833333333334]","[0, 0, 0, 0, 0, 0, 0, 0, 0, 0, 0, 0, 0, 0, 0, 0]","[0, 0, 0, 0, 0, 0, 0, 0, 0, 0, 0, 0, 0, 0, 0, 0]","[0, 0, 0, 0, 0, 0, 0, 0, 0, 0, 0, 0, 0, 0, 0, 0]","[0.0029794001020491123, 0.014585400000214577, 0.03205789998173714, 0.04855250008404255, 0.06532320007681847, 0.08199340011924505, 0.09862820012494922, 0.1152844000607729, 0.1322026001289487, 0.1486261000391096, 0.16528340009972453, 0.18200210016220808, 0.19860320002771914, 0.21528200013563037, 0.23226830014027655, 0.2485988000407815]",37.052925900090486,None,37.052925900090486,None,37.052925900090486,None,37.052925900090486,None,37.052925900090486,None,space,0.22308479994535446,37.052925900090486,None,,,,,,,,,,,,,,,,,,,,,,,,,,,,,,,a,001,2020_Jun_03_1437,mousePos3,2020.1.3,59.97979876167627,
,,,,31,0,31,0,,,,,,,,,,,,,,,,,,,,,"[1, 1, 1, 1, 1, 1, 1, 1, 1, 1, 1, 1, 1]",60,,,,,,,,,,,,,,,,,,,,,"[-0.20052083333333334, -0.20052083333333334, -0.20052083333333334, -0.20052083333333334, -0.20052083333333334, -0.20052083333333334, -0.20052083333333334, -0.20052083333333334, -0.20052083333333334, -0.20052083333333334, -0.20052083333333334, -0.20052083333333334, -0.20052083333333334]","[0.13020833333333334, 0.13020833333333334, 0.13020833333333334, 0.13020833333333334, 0.13020833333333334, 0.13020833333333334, 0.13020833333333334, 0.13020833333333334, 0.13020833333333334, 0.13020833333333334, 0.13020833333333334, 0.13020833333333334, 0.13020833333333334]","[0, 0, 0, 0, 0, 0, 0, 0, 0, 0, 0, 0, 0]","[0, 0, 0, 0, 0, 0, 0, 0, 0, 0, 0, 0, 0]","[0, 0, 0, 0, 0, 0, 0, 0, 0, 0, 0, 0, 0]","[0.0029639999847859144, 0.012776799965649843, 0.03276460012421012, 0.04965650010854006, 0.06632039998658001, 0.08295760001055896, 0.09957540011964738, 0.11627830006182194, 0.13301059999503195, 0.14956229995004833, 0.16623009997420013, 0.1832421999424696, 0.19988159998320043]",37.31755469995551,None,37.31755469995551,None,37.31755469995551,None,37.31755469995551,None,37.31755469995551,None,space,0.1823801000136882,37.31755469995551,None,,,,,,,,,,,,,,,,,,,,,,,,,,,,,,,a,001,2020_Jun_03_1437,mousePos3,2020.1.3,59.97979876167627,
,,,,32,0,32,0,,,,,,,,,,,,,,,,,,,,,"[1, 1, 1, 1, 1, 1, 1, 1, 1, 1, 1, 1, 1]",30,,,,,,,,,,,,,,,,,,,,,"[-0.20052083333333334, -0.20052083333333334, -0.20052083333333334, -0.20052083333333334, -0.20052083333333334, -0.20052083333333334, -0.20052083333333334, -0.20052083333333334, -0.20052083333333334, -0.20052083333333334, -0.20052083333333334, -0.20052083333333334, -0.20052083333333334]","[0.13020833333333334, 0.13020833333333334, 0.13020833333333334, 0.13020833333333334, 0.13020833333333334, 0.13020833333333334, 0.13020833333333334, 0.13020833333333334, 0.13020833333333334, 0.13020833333333334, 0.13020833333333334, 0.13020833333333334, 0.13020833333333334]","[0, 0, 0, 0, 0, 0, 0, 0, 0, 0, 0, 0, 0]","[0, 0, 0, 0, 0, 0, 0, 0, 0, 0, 0, 0, 0]","[0, 0, 0, 0, 0, 0, 0, 0, 0, 0, 0, 0, 0]","[0.0032987999729812145, 0.014590299921110272, 0.031955899903550744, 0.048645899863913655, 0.06544380006380379, 0.08243219996802509, 0.09854989987798035, 0.11518099997192621, 0.13191449991427362, 0.14864140003919601, 0.165274600032717, 0.18193689989857376, 0.1985885000322014]",37.53615100006573,None,37.53615100006573,None,37.53615100006573,None,37.53615100006573,None,37.53615100006573,None,space,0.18785670003853738,37.53615100006573,None,,,,,,,,,,,,,,,,,,,,,,,,,,,,,,,a,001,2020_Jun_03_1437,mousePos3,2020.1.3,59.97979876167627,
,,,,33,0,33,0,,,,,,,,,,,,,,,,,,,,,"[1, 1, 1, 1, 1, 1, 1, 1, 1, 1, 1, 1, 1, 1, 1]",60,,,,,,,,,,,,,,,,,,,,,"[-0.20052083333333334, -0.20052083333333334, -0.20052083333333334, -0.20052083333333334, -0.20052083333333334, -0.20052083333333334, -0.20052083333333334, -0.20052083333333334, -0.20052083333333334, -0.20052083333333334, -0.20052083333333334, -0.20052083333333334, -0.20052083333333334, -0.20052083333333334, -0.20052083333333334]","[0.13020833333333334, 0.13020833333333334, 0.13020833333333334, 0.13020833333333334, 0.13020833333333334, 0.13020833333333334, 0.13020833333333334, 0.13020833333333334, 0.13020833333333334, 0.13020833333333334, 0.13020833333333334, 0.13020833333333334, 0.13020833333333334, 0.13020833333333334, 0.13020833333333334]","[0, 0, 0, 0, 0, 0, 0, 0, 0, 0, 0, 0, 0, 0, 0]","[0, 0, 0, 0, 0, 0, 0, 0, 0, 0, 0, 0, 0, 0, 0]","[0, 0, 0, 0, 0, 0, 0, 0, 0, 0, 0, 0, 0, 0, 0]","[0.003262600162997842, 0.014282400021329522, 0.03243160014972091, 0.049607699969783425, 0.06630520010367036, 0.08291930006816983, 0.0996193999890238, 0.1162018000613898, 0.13359980005770922, 0.14955010008998215, 0.16636810009367764, 0.18291640002280474, 0.19956340012140572, 0.21627119998447597, 0.23337300005368888]",37.751911300001666,None,37.751911300001666,None,37.751911300001666,None,37.751911300001666,None,37.751911300001666,None,space,0.2203575000166893,37.751911300001666,None,,,,,,,,,,,,,,,,,,,,,,,,,,,,,,,a,001,2020_Jun_03_1437,mousePos3,2020.1.3,59.97979876167627,
,,,,34,0,34,0,,,,,,,,,,,,,,,,,,,,,"[1, 1, 1, 1, 1, 1, 1, 1, 1, 1, 1, 1, 1, 1, 1]",30,,,,,,,,,,,,,,,,,,,,,"[-0.20052083333333334, -0.20052083333333334, -0.20052083333333334, -0.20052083333333334, -0.20052083333333334, -0.20052083333333334, -0.20052083333333334, -0.20052083333333334, -0.20052083333333334, -0.20052083333333334, -0.20052083333333334, -0.20052083333333334, -0.20052083333333334, -0.20052083333333334, -0.20052083333333334]","[0.13020833333333334, 0.13020833333333334, 0.13020833333333334, 0.13020833333333334, 0.13020833333333334, 0.13020833333333334, 0.13020833333333334, 0.13020833333333334, 0.13020833333333334, 0.13020833333333334, 0.13020833333333334, 0.13020833333333334, 0.13020833333333334, 0.13020833333333334, 0.13020833333333334]","[0, 0, 0, 0, 0, 0, 0, 0, 0, 0, 0, 0, 0, 0, 0]","[0, 0, 0, 0, 0, 0, 0, 0, 0, 0, 0, 0, 0, 0, 0]","[0, 0, 0, 0, 0, 0, 0, 0, 0, 0, 0, 0, 0, 0, 0]","[0.0029961999971419573, 0.013193999882787466, 0.03174060001038015, 0.04880900005809963, 0.06555550009943545, 0.0822385000064969, 0.09884069999679923, 0.11558109987527132, 0.13210580009035766, 0.14884290006011724, 0.1654964000917971, 0.18220550008118153, 0.19885809998959303, 0.21547250007279217, 0.23349200002849102]",38.00137660000473,None,38.00137660000473,None,38.00137660000473,None,38.00137660000473,None,38.00137660000473,None,space,0.21867499989457428,38.00137660000473,None,,,,,,,,,,,,,,,,,,,,,,,,,,,,,,,a,001,2020_Jun_03_1437,mousePos3,2020.1.3,59.97979876167627,
,,,,35,0,35,0,,,,,,,,,,,,,,,,,,,,,"[1, 1, 1, 1, 1, 1, 1, 1, 1, 1, 1, 1, 1, 1, 1]",60,,,,,,,,,,,,,,,,,,,,,"[-0.20052083333333334, -0.20052083333333334, -0.20052083333333334, -0.20052083333333334, -0.20052083333333334, -0.20052083333333334, -0.20052083333333334, -0.20052083333333334, -0.20052083333333334, -0.20052083333333334, -0.20052083333333334, -0.20052083333333334, -0.20052083333333334, -0.20052083333333334, -0.20052083333333334]","[0.13020833333333334, 0.13020833333333334, 0.13020833333333334, 0.13020833333333334, 0.13020833333333334, 0.13020833333333334, 0.13020833333333334, 0.13020833333333334, 0.13020833333333334, 0.13020833333333334, 0.13020833333333334, 0.13020833333333334, 0.13020833333333334, 0.13020833333333334, 0.13020833333333334]","[0, 0, 0, 0, 0, 0, 0, 0, 0, 0, 0, 0, 0, 0, 0]","[0, 0, 0, 0, 0, 0, 0, 0, 0, 0, 0, 0, 0, 0, 0]","[0, 0, 0, 0, 0, 0, 0, 0, 0, 0, 0, 0, 0, 0, 0]","[0.003149499883875251, 0.014720499981194735, 0.031537799863144755, 0.048141999868676066, 0.06479059997946024, 0.08143969997763634, 0.09810169995762408, 0.11521959980018437, 0.1314233997836709, 0.14813069999217987, 0.16476449999026954, 0.18135539977811277, 0.19808699982240796, 0.21469129994511604, 0.2319722999818623]",38.253282099962234,None,38.253282099962234,None,38.253282099962234,None,38.253282099962234,None,38.253282099962234,None,space,0.21466950001195073,38.253282099962234,None,,,,,,,,,,,,,,,,,,,,,,,,,,,,,,,a,001,2020_Jun_03_1437,mousePos3,2020.1.3,59.97979876167627,
,,,,36,0,36,0,,,,,,,,,,,,,,,,,,,,,"[1, 1, 1, 1, 1, 1, 1, 1, 1, 1, 1, 1, 1, 1, 1, 1]",30,,,,,,,,,,,,,,,,,,,,,"[-0.20052083333333334, -0.20052083333333334, -0.20052083333333334, -0.20052083333333334, -0.20052083333333334, -0.20052083333333334, -0.20052083333333334, -0.20052083333333334, -0.20052083333333334, -0.20052083333333334, -0.20052083333333334, -0.20052083333333334, -0.20052083333333334, -0.20052083333333334, -0.20052083333333334, -0.20052083333333334]","[0.13020833333333334, 0.13020833333333334, 0.13020833333333334, 0.13020833333333334, 0.13020833333333334, 0.13020833333333334, 0.13020833333333334, 0.13020833333333334, 0.13020833333333334, 0.13020833333333334, 0.13020833333333334, 0.13020833333333334, 0.13020833333333334, 0.13020833333333334, 0.13020833333333334, 0.13020833333333334]","[0, 0, 0, 0, 0, 0, 0, 0, 0, 0, 0, 0, 0, 0, 0, 0]","[0, 0, 0, 0, 0, 0, 0, 0, 0, 0, 0, 0, 0, 0, 0, 0]","[0, 0, 0, 0, 0, 0, 0, 0, 0, 0, 0, 0, 0, 0, 0, 0]","[0.00321789993904531, 0.013735099928453565, 0.03117430000565946, 0.04857220011763275, 0.06516989995725453, 0.0818567001260817, 0.09854410006664693, 0.11566010001115501, 0.1318516000173986, 0.14846340008080006, 0.16518940008245409, 0.18181549990549684, 0.1985027000773698, 0.2151391999796033, 0.23187009990215302, 0.2488114999141544]",38.50185199989937,None,38.50185199989937,None,38.50185199989937,None,38.50185199989937,None,38.50185199989937,None,space,0.2301263001281768,38.50185199989937,None,,,,,,,,,,,,,,,,,,,,,,,,,,,,,,,a,001,2020_Jun_03_1437,mousePos3,2020.1.3,59.97979876167627,
,,,,37,0,37,0,,,,,,,,,,,,,,,,,,,,,"[1, 1, 1, 1, 1, 1, 1, 1, 1, 1, 1, 1, 1, 1]",60,,,,,,,,,,,,,,,,,,,,,"[-0.20052083333333334, -0.20052083333333334, -0.20052083333333334, -0.20052083333333334, -0.20052083333333334, -0.20052083333333334, -0.20052083333333334, -0.20052083333333334, -0.20052083333333334, -0.20052083333333334, -0.20052083333333334, -0.20052083333333334, -0.20052083333333334, -0.20052083333333334]","[0.13020833333333334, 0.13020833333333334, 0.13020833333333334, 0.13020833333333334, 0.13020833333333334, 0.13020833333333334, 0.13020833333333334, 0.13020833333333334, 0.13020833333333334, 0.13020833333333334, 0.13020833333333334, 0.13020833333333334, 0.13020833333333334, 0.13020833333333334]","[0, 0, 0, 0, 0, 0, 0, 0, 0, 0, 0, 0, 0, 0]","[0, 0, 0, 0, 0, 0, 0, 0, 0, 0, 0, 0, 0, 0]","[0, 0, 0, 0, 0, 0, 0, 0, 0, 0, 0, 0, 0, 0]","[0.0034712001215666533, 0.014930000063031912, 0.0321059999987483, 0.0486849001608789, 0.06530799996107817, 0.08193640015088022, 0.0994762999471277, 0.1154126999899745, 0.1320170999970287, 0.1486822001170367, 0.16530120000243187, 0.18197560007683933, 0.19862839998677373, 0.21581920003518462]",38.76989630004391,None,38.76989630004391,None,38.76989630004391,None,38.76989630004391,None,38.76989630004391,None,space,0.19397240015678108,38.76989630004391,None,,,,,,,,,,,,,,,,,,,,,,,,,,,,,,,a,001,2020_Jun_03_1437,mousePos3,2020.1.3,59.97979876167627,
,,,,38,0,38,0,,,,,,,,,,,,,,,,,,,,,"[1, 1, 1, 1, 1, 1, 1, 1, 1, 1, 1, 1, 1, 1, 1]",30,,,,,,,,,,,,,,,,,,,,,"[-0.20052083333333334, -0.20052083333333334, -0.20052083333333334, -0.20052083333333334, -0.20052083333333334, -0.20052083333333334, -0.20052083333333334, -0.20052083333333334, -0.20052083333333334, -0.20052083333333334, -0.20052083333333334, -0.20052083333333334, -0.20052083333333334, -0.20052083333333334, -0.20052083333333334]","[0.13020833333333334, 0.13020833333333334, 0.13020833333333334, 0.13020833333333334, 0.13020833333333334, 0.13020833333333334, 0.13020833333333334, 0.13020833333333334, 0.13020833333333334, 0.13020833333333334, 0.13020833333333334, 0.13020833333333334, 0.13020833333333334, 0.13020833333333334, 0.13020833333333334]","[0, 0, 0, 0, 0, 0, 0, 0, 0, 0, 0, 0, 0, 0, 0]","[0, 0, 0, 0, 0, 0, 0, 0, 0, 0, 0, 0, 0, 0, 0]","[0, 0, 0, 0, 0, 0, 0, 0, 0, 0, 0, 0, 0, 0, 0]","[0.002885800087824464, 0.01334329997189343, 0.03158820001408458, 0.048757300013676286, 0.06537409988231957, 0.08200110006146133, 0.09877109993249178, 0.11540829995647073, 0.1320744000840932, 0.148728400003165, 0.1653783000074327, 0.18207080010324717, 0.19869880005717278, 0.2153481999412179, 0.2324312999844551]",39.0014031000901,None,39.0014031000901,None,39.0014031000901,None,39.0014031000901,None,39.0014031000901,None,space,0.2109856999013573,39.0014031000901,None,,,,,,,,,,,,,,,,,,,,,,,,,,,,,,,a,001,2020_Jun_03_1437,mousePos3,2020.1.3,59.97979876167627,
,,,,39,0,39,0,,,,,,,,,,,,,,,,,,,,,"[1, 1, 1, 1, 1, 1, 1, 1, 1, 1, 1, 1, 1, 1]",60,,,,,,,,,,,,,,,,,,,,,"[-0.20052083333333334, -0.20052083333333334, -0.20052083333333334, -0.20052083333333334, -0.20052083333333334, -0.20052083333333334, -0.20052083333333334, -0.20052083333333334, -0.20052083333333334, -0.20052083333333334, -0.20052083333333334, -0.20052083333333334, -0.20052083333333334, -0.20052083333333334]","[0.13020833333333334, 0.13020833333333334, 0.13020833333333334, 0.13020833333333334, 0.13020833333333334, 0.13020833333333334, 0.13020833333333334, 0.13020833333333334, 0.13020833333333334, 0.13020833333333334, 0.13020833333333334, 0.13020833333333334, 0.13020833333333334, 0.13020833333333334]","[0, 0, 0, 0, 0, 0, 0, 0, 0, 0, 0, 0, 0, 0]","[0, 0, 0, 0, 0, 0, 0, 0, 0, 0, 0, 0, 0, 0]","[0, 0, 0, 0, 0, 0, 0, 0, 0, 0, 0, 0, 0, 0]","[0.0030205000657588243, 0.013319500023499131, 0.03133790008723736, 0.04875200008973479, 0.06536230002529919, 0.08193630003370345, 0.09923749999143183, 0.11534069990739226, 0.13203019998036325, 0.14874000009149313, 0.16532450006343424, 0.18196529988199472, 0.1986511000432074, 0.2153612000402063]",39.25154550001025,None,39.25154550001025,None,39.25154550001025,None,39.25154550001025,None,39.25154550001025,None,space,0.19248270010575652,39.25154550001025,None,,,,,,,,,,,,,,,,,,,,,,,,,,,,,,,a,001,2020_Jun_03_1437,mousePos3,2020.1.3,59.97979876167627,
,,,,40,0,40,0,,,,,,,,,,,,,,,,,,,,,"[1, 1, 1, 1, 1, 1, 1, 1, 1, 1, 1, 1, 1, 1, 1]",30,,,,,,,,,,,,,,,,,,,,,"[-0.20052083333333334, -0.20052083333333334, -0.20052083333333334, -0.20052083333333334, -0.20052083333333334, -0.20052083333333334, -0.20052083333333334, -0.20052083333333334, -0.20052083333333334, -0.20052083333333334, -0.20052083333333334, -0.20052083333333334, -0.20052083333333334, -0.20052083333333334, -0.20052083333333334]","[0.13020833333333334, 0.13020833333333334, 0.13020833333333334, 0.13020833333333334, 0.13020833333333334, 0.13020833333333334, 0.13020833333333334, 0.13020833333333334, 0.13020833333333334, 0.13020833333333334, 0.13020833333333334, 0.13020833333333334, 0.13020833333333334, 0.13020833333333334, 0.13020833333333334]","[0, 0, 0, 0, 0, 0, 0, 0, 0, 0, 0, 0, 0, 0, 0]","[0, 0, 0, 0, 0, 0, 0, 0, 0, 0, 0, 0, 0, 0, 0]","[0, 0, 0, 0, 0, 0, 0, 0, 0, 0, 0, 0, 0, 0, 0]","[0.0028568999841809273, 0.01281470013782382, 0.03215069998987019, 0.049409399973228574, 0.06601370009593666, 0.08270370005629957, 0.09930999996140599, 0.11732600000686944, 0.13264780002646148, 0.14927739999257028, 0.16602420015260577, 0.1826347999740392, 0.19928280008025467, 0.21600100002251565, 0.23305170005187392]",39.48371489997953,None,39.48371489997953,None,39.48371489997953,None,39.48371489997953,None,39.48371489997953,None,space,0.21621720003895462,39.48371489997953,None,,,,,,,,,,,,,,,,,,,,,,,,,,,,,,,a,001,2020_Jun_03_1437,mousePos3,2020.1.3,59.97979876167627,
,,,,41,0,41,0,,,,,,,,,,,,,,,,,,,,,"[1, 1, 1, 1, 1, 1, 1, 1, 1, 1, 1, 1, 1, 1]",60,,,,,,,,,,,,,,,,,,,,,"[-0.20052083333333334, -0.20052083333333334, -0.20052083333333334, -0.20052083333333334, -0.20052083333333334, -0.20052083333333334, -0.20052083333333334, -0.20052083333333334, -0.20052083333333334, -0.20052083333333334, -0.20052083333333334, -0.20052083333333334, -0.20052083333333334, -0.20052083333333334]","[0.13020833333333334, 0.13020833333333334, 0.13020833333333334, 0.13020833333333334, 0.13020833333333334, 0.13020833333333334, 0.13020833333333334, 0.13020833333333334, 0.13020833333333334, 0.13020833333333334, 0.13020833333333334, 0.13020833333333334, 0.13020833333333334, 0.13020833333333334]","[0, 0, 0, 0, 0, 0, 0, 0, 0, 0, 0, 0, 0, 0]","[0, 0, 0, 0, 0, 0, 0, 0, 0, 0, 0, 0, 0, 0]","[0, 0, 0, 0, 0, 0, 0, 0, 0, 0, 0, 0, 0, 0]","[0.0029026998672634363, 0.014365399954840541, 0.031610799953341484, 0.04827539995312691, 0.06500129983760417, 0.08199490001425147, 0.09893390000797808, 0.11495610000565648, 0.13154989993199706, 0.14830609993077815, 0.16501279990188777, 0.18170679989270866, 0.1982394999358803, 0.2148924998473376]",39.73575420002453,None,39.73575420002453,None,39.73575420002453,None,39.73575420002453,None,39.73575420002453,None,space,0.20423689996823668,39.73575420002453,None,,,,,,,,,,,,,,,,,,,,,,,,,,,,,,,a,001,2020_Jun_03_1437,mousePos3,2020.1.3,59.97979876167627,
,,,,42,0,42,0,,,,,,,,,,,,,,,,,,,,,"[1, 1, 1, 1, 1, 1, 1, 1, 1, 1, 1, 1, 1, 1, 1, 1]",30,,,,,,,,,,,,,,,,,,,,,"[-0.20052083333333334, -0.20052083333333334, -0.20052083333333334, -0.20052083333333334, -0.20052083333333334, -0.20052083333333334, -0.20052083333333334, -0.20052083333333334, -0.20052083333333334, -0.20052083333333334, -0.20052083333333334, -0.20052083333333334, -0.20052083333333334, -0.20052083333333334, -0.20052083333333334, -0.20052083333333334]","[0.13020833333333334, 0.13020833333333334, 0.13020833333333334, 0.13020833333333334, 0.13020833333333334, 0.13020833333333334, 0.13020833333333334, 0.13020833333333334, 0.13020833333333334, 0.13020833333333334, 0.13020833333333334, 0.13020833333333334, 0.13020833333333334, 0.13020833333333334, 0.13020833333333334, 0.13020833333333334]","[0, 0, 0, 0, 0, 0, 0, 0, 0, 0, 0, 0, 0, 0, 0, 0]","[0, 0, 0, 0, 0, 0, 0, 0, 0, 0, 0, 0, 0, 0, 0, 0]","[0, 0, 0, 0, 0, 0, 0, 0, 0, 0, 0, 0, 0, 0, 0, 0]","[0.0032824999652802944, 0.01453320006839931, 0.032238699961453676, 0.04888839996419847, 0.06562709994614124, 0.08219760004431009, 0.09886700008064508, 0.11627440014854074, 0.13222740008495748, 0.1487920000217855, 0.1654195999726653, 0.18212769995443523, 0.19889859994873405, 0.21551290014758706, 0.23219160013832152, 0.2492216001264751]",39.96855919994414,None,39.96855919994414,None,39.96855919994414,None,39.96855919994414,None,39.96855919994414,None,space,0.23581760004162788,39.96855919994414,None,,,,,,,,,,,,,,,,,,,,,,,,,,,,,,,a,001,2020_Jun_03_1437,mousePos3,2020.1.3,59.97979876167627,
,,,,43,0,43,0,,,,,,,,,,,,,,,,,,,,,"[1, 1, 1, 1, 1, 1, 1, 1, 1, 1, 1, 1, 1, 1, 1]",60,,,,,,,,,,,,,,,,,,,,,"[-0.20052083333333334, -0.20052083333333334, -0.20052083333333334, -0.20052083333333334, -0.20052083333333334, -0.20052083333333334, -0.20052083333333334, -0.20052083333333334, -0.20052083333333334, -0.20052083333333334, -0.20052083333333334, -0.20052083333333334, -0.20052083333333334, -0.20052083333333334, -0.20052083333333334]","[0.13020833333333334, 0.13020833333333334, 0.13020833333333334, 0.13020833333333334, 0.13020833333333334, 0.13020833333333334, 0.13020833333333334, 0.13020833333333334, 0.13020833333333334, 0.13020833333333334, 0.13020833333333334, 0.13020833333333334, 0.13020833333333334, 0.13020833333333334, 0.13020833333333334]","[0, 0, 0, 0, 0, 0, 0, 0, 0, 0, 0, 0, 0, 0, 0]","[0, 0, 0, 0, 0, 0, 0, 0, 0, 0, 0, 0, 0, 0, 0]","[0, 0, 0, 0, 0, 0, 0, 0, 0, 0, 0, 0, 0, 0, 0]","[0.0028792000375688076, 0.013073799898847938, 0.031301100039854646, 0.048555699875578284, 0.06520979991182685, 0.08228109986521304, 0.09854549984447658, 0.11515349987894297, 0.1318534999154508, 0.14859050000086427, 0.16519219987094402, 0.18185479985550046, 0.19849149999208748, 0.21516359993256629, 0.23180769989266992]",40.234806099906564,None,40.234806099906564,None,40.234806099906564,None,40.234806099906564,None,40.234806099906564,None,space,0.20912049990147352,40.234806099906564,None,,,,,,,,,,,,,,,,,,,,,,,,,,,,,,,a,001,2020_Jun_03_1437,mousePos3,2020.1.3,59.97979876167627,
,,,,44,0,44,0,,,,,,,,,,,,,,,,,,,,,"[1, 1, 1, 1, 1, 1, 1, 1, 1, 1, 1, 1, 1, 1]",30,,,,,,,,,,,,,,,,,,,,,"[-0.20052083333333334, -0.20052083333333334, -0.20052083333333334, -0.20052083333333334, -0.20052083333333334, -0.20052083333333334, -0.20052083333333334, -0.20052083333333334, -0.20052083333333334, -0.20052083333333334, -0.20052083333333334, -0.20052083333333334, -0.20052083333333334, -0.20052083333333334]","[0.13020833333333334, 0.13020833333333334, 0.13020833333333334, 0.13020833333333334, 0.13020833333333334, 0.13020833333333334, 0.13020833333333334, 0.13020833333333334, 0.13020833333333334, 0.13020833333333334, 0.13020833333333334, 0.13020833333333334, 0.13020833333333334, 0.13020833333333334]","[0, 0, 0, 0, 0, 0, 0, 0, 0, 0, 0, 0, 0, 0]","[0, 0, 0, 0, 0, 0, 0, 0, 0, 0, 0, 0, 0, 0]","[0, 0, 0, 0, 0, 0, 0, 0, 0, 0, 0, 0, 0, 0]","[0.0031343000009655952, 0.014332599937915802, 0.026674299966543913, 0.04336800007149577, 0.06040319986641407, 0.07666429993696511, 0.0933755999431014, 0.11005160002969205, 0.12678939988836646, 0.1433840999379754, 0.16018070001155138, 0.17667519999668002, 0.19327359995804727, 0.21056129992939532]",40.49052480002865,None,40.49052480002865,None,40.49052480002865,None,40.49052480002865,None,40.49052480002865,None,space,0.19342090003192425,40.49052480002865,None,,,,,,,,,,,,,,,,,,,,,,,,,,,,,,,a,001,2020_Jun_03_1437,mousePos3,2020.1.3,59.97979876167627,
,,,,45,0,45,0,,,,,,,,,,,,,,,,,,,,,"[1, 1, 1, 1, 1, 1, 1, 1, 1, 1, 1, 1, 1, 1, 1, 1]",60,,,,,,,,,,,,,,,,,,,,,"[-0.20052083333333334, -0.20052083333333334, -0.20052083333333334, -0.20052083333333334, -0.20052083333333334, -0.20052083333333334, -0.20052083333333334, -0.20052083333333334, -0.20052083333333334, -0.20052083333333334, -0.20052083333333334, -0.20052083333333334, -0.20052083333333334, -0.20052083333333334, -0.20052083333333334, -0.20052083333333334]","[0.13020833333333334, 0.13020833333333334, 0.13020833333333334, 0.13020833333333334, 0.13020833333333334, 0.13020833333333334, 0.13020833333333334, 0.13020833333333334, 0.13020833333333334, 0.13020833333333334, 0.13020833333333334, 0.13020833333333334, 0.13020833333333334, 0.13020833333333334, 0.13020833333333334, 0.13020833333333334]","[0, 0, 0, 0, 0, 0, 0, 0, 0, 0, 0, 0, 0, 0, 0, 0]","[0, 0, 0, 0, 0, 0, 0, 0, 0, 0, 0, 0, 0, 0, 0, 0]","[0, 0, 0, 0, 0, 0, 0, 0, 0, 0, 0, 0, 0, 0, 0, 0]","[0.0029494999907910824, 0.013385399943217635, 0.03143119998276234, 0.048557099886238575, 0.06525700003840029, 0.08193730004131794, 0.09905089996755123, 0.11527860001660883, 0.13189599988982081, 0.1489070998504758, 0.16526359994895756, 0.1819735998287797, 0.1987375000026077, 0.2152221999131143, 0.23189619998447597, 0.24950190004892647]",40.71794159989804,None,40.71794159989804,None,40.71794159989804,None,40.71794159989804,None,40.71794159989804,None,space,0.22995249996893108,40.71794159989804,None,,,,,,,,,,,,,,,,,,,,,,,,,,,,,,,a,001,2020_Jun_03_1437,mousePos3,2020.1.3,59.97979876167627,
,,,,46,0,46,0,,,,,,,,,,,,,,,,,,,,,"[1, 1, 1, 1, 1, 1, 1, 1, 1, 1, 1, 1, 1, 1]",30,,,,,,,,,,,,,,,,,,,,,"[-0.20052083333333334, -0.20052083333333334, -0.20052083333333334, -0.20052083333333334, -0.20052083333333334, -0.20052083333333334, -0.20052083333333334, -0.20052083333333334, -0.20052083333333334, -0.20052083333333334, -0.20052083333333334, -0.20052083333333334, -0.20052083333333334, -0.20052083333333334]","[0.13020833333333334, 0.13020833333333334, 0.13020833333333334, 0.13020833333333334, 0.13020833333333334, 0.13020833333333334, 0.13020833333333334, 0.13020833333333334, 0.13020833333333334, 0.13020833333333334, 0.13020833333333334, 0.13020833333333334, 0.13020833333333334, 0.13020833333333334]","[0, 0, 0, 0, 0, 0, 0, 0, 0, 0, 0, 0, 0, 0]","[0, 0, 0, 0, 0, 0, 0, 0, 0, 0, 0, 0, 0, 0]","[0, 0, 0, 0, 0, 0, 0, 0, 0, 0, 0, 0, 0, 0]","[0.0028722002170979977, 0.013017900055274367, 0.03127050003968179, 0.048012400045990944, 0.06465520011261106, 0.08173900004476309, 0.09803870017640293, 0.11464880011044443, 0.13133400003425777, 0.14797190017998219, 0.16465690010227263, 0.1812762999907136, 0.19801940000616014, 0.21510290005244315]",40.98502209992148,None,40.98502209992148,None,40.98502209992148,None,40.98502209992148,None,40.98502209992148,None,space,0.19494329998269677,40.98502209992148,None,,,,,,,,,,,,,,,,,,,,,,,,,,,,,,,a,001,2020_Jun_03_1437,mousePos3,2020.1.3,59.97979876167627,
,,,,47,0,47,0,,,,,,,,,,,,,,,,,,,,,"[1, 1, 1, 1, 1, 1, 1, 1, 1, 1, 1, 1, 1, 1, 1]",60,,,,,,,,,,,,,,,,,,,,,"[-0.20052083333333334, -0.20052083333333334, -0.20052083333333334, -0.20052083333333334, -0.20052083333333334, -0.20052083333333334, -0.20052083333333334, -0.20052083333333334, -0.20052083333333334, -0.20052083333333334, -0.20052083333333334, -0.20052083333333334, -0.20052083333333334, -0.20052083333333334, -0.20052083333333334]","[0.13020833333333334, 0.13020833333333334, 0.13020833333333334, 0.13020833333333334, 0.13020833333333334, 0.13020833333333334, 0.13020833333333334, 0.13020833333333334, 0.13020833333333334, 0.13020833333333334, 0.13020833333333334, 0.13020833333333334, 0.13020833333333334, 0.13020833333333334, 0.13020833333333334]","[0, 0, 0, 0, 0, 0, 0, 0, 0, 0, 0, 0, 0, 0, 0]","[0, 0, 0, 0, 0, 0, 0, 0, 0, 0, 0, 0, 0, 0, 0]","[0, 0, 0, 0, 0, 0, 0, 0, 0, 0, 0, 0, 0, 0, 0]","[0.0033598998561501503, 0.01503359992057085, 0.03209430002607405, 0.04876399994827807, 0.065700399922207, 0.08209079992957413, 0.09881150000728667, 0.11545659997500479, 0.13206660002470016, 0.14876669994555414, 0.16543389996513724, 0.18209840008057654, 0.19877339992672205, 0.21542069991119206, 0.23292979993857443]",41.21885240008123,None,41.21885240008123,None,41.21885240008123,None,41.21885240008123,None,41.21885240008123,None,space,0.21721190004609525,41.21885240008123,None,,,,,,,,,,,,,,,,,,,,,,,,,,,,,,,a,001,2020_Jun_03_1437,mousePos3,2020.1.3,59.97979876167627,
,,,,48,0,48,0,,,,,,,,,,,,,,,,,,,,,"[1, 1, 1, 1, 1, 1, 1, 1, 1, 1, 1, 1, 1, 1, 1, 1]",30,,,,,,,,,,,,,,,,,,,,,"[-0.20052083333333334, -0.20052083333333334, -0.20052083333333334, -0.20052083333333334, -0.20052083333333334, -0.20052083333333334, -0.20052083333333334, -0.20052083333333334, -0.20052083333333334, -0.20052083333333334, -0.20052083333333334, -0.20052083333333334, -0.20052083333333334, -0.20052083333333334, -0.20052083333333334, -0.20052083333333334]","[0.13020833333333334, 0.13020833333333334, 0.13020833333333334, 0.13020833333333334, 0.13020833333333334, 0.13020833333333334, 0.13020833333333334, 0.13020833333333334, 0.13020833333333334, 0.13020833333333334, 0.13020833333333334, 0.13020833333333334, 0.13020833333333334, 0.13020833333333334, 0.13020833333333334, 0.13020833333333334]","[0, 0, 0, 0, 0, 0, 0, 0, 0, 0, 0, 0, 0, 0, 0, 0]","[0, 0, 0, 0, 0, 0, 0, 0, 0, 0, 0, 0, 0, 0, 0, 0]","[0, 0, 0, 0, 0, 0, 0, 0, 0, 0, 0, 0, 0, 0, 0, 0]","[0.003060600021854043, 0.012952500022947788, 0.03099810006096959, 0.04844320006668568, 0.06503339996561408, 0.08172590006142855, 0.09887410001829267, 0.1151407000143081, 0.13218390010297298, 0.14839450013823807, 0.1650626000482589, 0.1817332999780774, 0.19834410003386438, 0.21504020015709102, 0.23183270008303225, 0.24875669996254146]",41.467794300056994,None,41.467794300056994,None,41.467794300056994,None,41.467794300056994,None,41.467794300056994,None,space,0.23229270009323955,41.467794300056994,None,,,,,,,,,,,,,,,,,,,,,,,,,,,,,,,a,001,2020_Jun_03_1437,mousePos3,2020.1.3,59.97979876167627,
,,,,49,0,49,0,,,,,,,,,,,,,,,,,,,,,"[1, 1, 1, 1, 1, 1, 1, 1, 1, 1, 1, 1, 1, 1, 1]",60,,,,,,,,,,,,,,,,,,,,,"[-0.20052083333333334, -0.20052083333333334, -0.20052083333333334, -0.20052083333333334, -0.20052083333333334, -0.20052083333333334, -0.20052083333333334, -0.20052083333333334, -0.20052083333333334, -0.20052083333333334, -0.20052083333333334, -0.20052083333333334, -0.20052083333333334, -0.20052083333333334, -0.20052083333333334]","[0.13020833333333334, 0.13020833333333334, 0.13020833333333334, 0.13020833333333334, 0.13020833333333334, 0.13020833333333334, 0.13020833333333334, 0.13020833333333334, 0.13020833333333334, 0.13020833333333334, 0.13020833333333334, 0.13020833333333334, 0.13020833333333334, 0.13020833333333334, 0.13020833333333334]","[0, 0, 0, 0, 0, 0, 0, 0, 0, 0, 0, 0, 0, 0, 0]","[0, 0, 0, 0, 0, 0, 0, 0, 0, 0, 0, 0, 0, 0, 0]","[0, 0, 0, 0, 0, 0, 0, 0, 0, 0, 0, 0, 0, 0, 0]","[0.003085999982431531, 0.013464400079101324, 0.02925739996135235, 0.0459324000403285, 0.0626052999868989, 0.07973640016280115, 0.09599220007658005, 0.1124271999578923, 0.1291921001393348, 0.14579900004900992, 0.1626029999461025, 0.17959349998272955, 0.1958300000987947, 0.21250430005602539, 0.22919500013813376]",41.73722089990042,None,41.73722089990042,None,41.73722089990042,None,41.73722089990042,None,41.73722089990042,None,space,0.2028141999617219,41.73722089990042,None,,,,,,,,,,,,,,,,,,,,,,,,,,,,,,,a,001,2020_Jun_03_1437,mousePos3,2020.1.3,59.97979876167627,
,,,,50,0,50,0,,,,,,,,,,,,,,,,,,,,,"[1, 1, 1, 1, 1, 1, 1, 1, 1, 1, 1, 1, 1]",30,,,,,,,,,,,,,,,,,,,,,"[-0.20052083333333334, -0.20052083333333334, -0.20052083333333334, -0.20052083333333334, -0.20052083333333334, -0.20052083333333334, -0.20052083333333334, -0.20052083333333334, -0.20052083333333334, -0.20052083333333334, -0.20052083333333334, -0.20052083333333334, -0.20052083333333334]","[0.13020833333333334, 0.13020833333333334, 0.13020833333333334, 0.13020833333333334, 0.13020833333333334, 0.13020833333333334, 0.13020833333333334, 0.13020833333333334, 0.13020833333333334, 0.13020833333333334, 0.13020833333333334, 0.13020833333333334, 0.13020833333333334]","[0, 0, 0, 0, 0, 0, 0, 0, 0, 0, 0, 0, 0]","[0, 0, 0, 0, 0, 0, 0, 0, 0, 0, 0, 0, 0]","[0, 0, 0, 0, 0, 0, 0, 0, 0, 0, 0, 0, 0]","[0.0031125000678002834, 0.014788900036364794, 0.031101900152862072, 0.04763619997538626, 0.06476340000517666, 0.08097020001150668, 0.09762759995646775, 0.11424370016902685, 0.13099950016476214, 0.1476337001658976, 0.16432950017042458, 0.18094350001774728, 0.19795210007578135]",41.98624080000445,None,41.98624080000445,None,41.98624080000445,None,41.98624080000445,None,41.98624080000445,None,space,0.17769920011051,41.98624080000445,None,,,,,,,,,,,,,,,,,,,,,,,,,,,,,,,a,001,2020_Jun_03_1437,mousePos3,2020.1.3,59.97979876167627,
,,,,51,0,51,0,,,,,,,,,,,,,,,,,,,,,"[1, 1, 1, 1, 1, 1, 1, 1, 1, 1, 1, 1, 1]",60,,,,,,,,,,,,,,,,,,,,,"[-0.20052083333333334, -0.20052083333333334, -0.20052083333333334, -0.20052083333333334, -0.20052083333333334, -0.20052083333333334, -0.20052083333333334, -0.20052083333333334, -0.20052083333333334, -0.20052083333333334, -0.20052083333333334, -0.20052083333333334, -0.20052083333333334]","[0.13020833333333334, 0.13020833333333334, 0.13020833333333334, 0.13020833333333334, 0.13020833333333334, 0.13020833333333334, 0.13020833333333334, 0.13020833333333334, 0.13020833333333334, 0.13020833333333334, 0.13020833333333334, 0.13020833333333334, 0.13020833333333334]","[0, 0, 0, 0, 0, 0, 0, 0, 0, 0, 0, 0, 0]","[0, 0, 0, 0, 0, 0, 0, 0, 0, 0, 0, 0, 0]","[0, 0, 0, 0, 0, 0, 0, 0, 0, 0, 0, 0, 0]","[0.003052700078114867, 0.01419840008020401, 0.030816399957984686, 0.04740160005167127, 0.06399659998714924, 0.08167260000482202, 0.09735470009036362, 0.1140265001449734, 0.1307246999349445, 0.14733940013684332, 0.16395059996284544, 0.1806427000556141, 0.19779499992728233]",42.202543100109324,None,42.202543100109324,None,42.202543100109324,None,42.202543100109324,None,42.202543100109324,None,space,0.18551269988529384,42.202543100109324,None,,,,,,,,,,,,,,,,,,,,,,,,,,,,,,,a,001,2020_Jun_03_1437,mousePos3,2020.1.3,59.97979876167627,
